0156.00,-9956.00,29.28,1854.00,-2984.00,-565.00                                 
734,-2340.00,10404.00,-12412.00,29.28,2099.00,-913.00,815.00                    
0                                                                               
733,-2364.00,10156.00,-9956.00,29.28,1854.00,-2984.00,-565.00                   
734,-2340.00,10404.00,-12412.00,29.28,2099.00,-913.00,815.00                    
735,IºÂ¢ò                                                                       
Sample,aX,aY,az,Temp,gX,gY,gz                                                   
1,-249                                                                          
                                                                                
                                                                                
                                                                                
                                                                                
                                                                                
                                                                                
                                                                                
                                                                                
                                                                                
                                                                                
                                                                                
                                                                                
                                                                                
                                                                                
                                                                                
                                                                                
2.00,10852.00,-10512.00,29.28,305.00,825.00,115.00
2,-2432.00,11600.00,-11380.00,29.28,-724.00,1446.00,371.00
3,-2432.00,11420.00,-11560.00,29.33,2214.00,1884.00,-270.00
4,-2564.00,10564.00,-11532.00,29.33,1152.00,2797.00,-1178.00
5,-1756.00,9240.00,-11372.00,29.24,2231.00,4795.00,-2142.00
6,-1496.00,7984.00,-11616.00,29.19,94.00,3562.00,-1365.00
7,-1356.00,8604.00,-10368.00,29.24,600.00,1046.00,478.00
8,-612.00,8552.00,-10120.00,29.33,1002.00,-483.00,273.00
9,-616.00,9628.00,-11156.00,29.33,955.00,-1045.00,112.00
10,-1480.00,9340.00,-10456.00,29.28,582.00,-2748.00,100.00
11,-1580.00,9156.00,-11220.00,29.28,207.00,-1545.00,809.00
12,-372.00,10020.00,-13036.00,29.24,4754.00,-609.00,697.00
13,-496.00,10000.00,-12812.00,29.33,-921.00,288.00,-342.00
14,-1112.00,9940.00,-12284.00,29.38,274.00,267.00,-2049.00
15,-1808.00,9400.00,-11636.00,29.28,557.00,-104.00,-2901.00
16,-1352.00,8796.00,-12096.00,29.28,257.00,-678.00,-2714.00
17,-1132.00,6944.00,-12744.00,29.28,-5033.00,-2509.00,-3193.00
18,-1132.00,7276.00,-12352.00,29.28,3904.00,-1100.00,-2467.00
19,-2352.00,7928.00,-12572.00,29.28,-5554.00,-2007.00,-947.00
20,-2120.00,7296.00,-13324.00,29.42,122.00,-1959.00,2646.00
21,-3304.00,7588.00,-11728.00,29.28,-2178.00,-3615.00,920.00
22,-3568.00,9384.00,-12176.00,29.28,-519.00,-4590.00,-602.00
23,-4380.00,8600.00,-11144.00,29.28,-589.00,-5256.00,-1338.00
24,-4284.00,8132.00,-11392.00,29.38,-1978.00,-3575.00,-1030.00
25,-4828.00,9568.00,-11140.00,29.38,-9726.00,-1569.00,-2859.00
26,-3960.00,8916.00,-10128.00,29.33,-3017.00,-1744.00,-1698.00
27,-6040.00,9156.00,-9912.00,29.28,-6618.00,-1533.00,-2474.00
28,-6740.00,11052.00,-8640.00,29.28,-3337.00,-2043.00,-232.00
29,-5380.00,11768.00,-9276.00,29.28,8482.00,-3771.00,-2095.00
30,-6156.00,10088.00,-8656.00,29.28,-2973.00,469.00,-84.00
31,-7580.00,8060.00,-10088.00,29.24,216.00,1200.00,352.00
32,-5384.00,10264.00,-9776.00,29.38,-2092.00,-305.00,166.00
33,-5376.00,10640.00,-10260.00,29.33,-1059.00,205.00,224.00
34,-5708.00,9308.00,-8984.00,29.33,2256.00,12.00,905.00
35,-5952.00,8312.00,-9648.00,29.24,3024.00,753.00,836.00
36,-5344.00,8688.00,-9900.00,29.33,1676.00,774.00,1242.00
37,-4852.00,7240.00,-10716.00,29.28,1867.00,-35.00,2152.00
38,-4364.00,9480.00,-10592.00,29.33,4124.00,437.00,4093.00
39,-2460.00,9464.00,-13004.00,29.38,720.00,268.00,3607.00
40,-3052.00,8260.00,-12580.00,29.33,-1239.00,350.00,4807.00
41,-2444.00,7188.00,-11236.00,29.38,-1294.00,-1644.00,2390.00
42,-2416.00,9140.00,-11284.00,29.33,-1342.00,2068.00,319.00
43,-5416.00,12220.00,-11336.00,29.28,-1749.00,819.00,258.00
44,-4724.00,14524.00,-11260.00,29.38,5527.00,1823.00,-1734.00
45,-6440.00,7592.00,-10244.00,29.28,2461.00,683.00,659.00
46,-4808.00,10656.00,-11868.00,29.38,3844.00,202.00,5654.00
47,-3068.00,9900.00,-12892.00,29.38,-457.00,-1645.00,3812.00
48,-2528.00,7804.00,-11624.00,29.38,1767.00,-1940.00,2662.00
49,-2476.00,7856.00,-13064.00,29.24,-2265.00,-3477.00,2594.00
50,-3236.00,8120.00,-11292.00,29.38,-2432.00,-3383.00,419.00
51,-3576.00,8612.00,-11992.00,29.38,583.00,-1810.00,-428.00
52,-3472.00,9200.00,-11948.00,29.33,73.00,-1542.00,-1294.00
53,-5660.00,11904.00,-12692.00,29.38,-4013.00,-656.00,2738.00
54,-3976.00,8604.00,-11032.00,29.38,436.00,-949.00,-258.00
55,-3864.00,8104.00,-11436.00,29.42,-960.00,-2050.00,-394.00
56,-4856.00,9308.00,-11368.00,29.42,-663.00,-1588.00,-274.00
57,-4228.00,8100.00,-11100.00,29.42,-443.00,-823.00,-1092.00
58,-3916.00,8740.00,-11292.00,29.33,-1284.00,-211.00,590.00
59,-4276.00,8888.00,-11092.00,29.38,-367.00,413.00,-100.00
60,-4536.00,8860.00,-11144.00,29.28,-473.00,74.00,-78.00
61,-4236.00,8860.00,-11244.00,29.38,-498.00,-187.00,-29.00
62,-4240.00,8756.00,-10972.00,29.33,-505.00,-144.00,-2.00
63,-4416.00,8904.00,-11048.00,29.38,-780.00,-243.00,133.00
64,-4420.00,8984.00,-11044.00,29.42,-209.00,-537.00,-7.00
65,-4216.00,8900.00,-11008.00,29.33,-80.00,-720.00,-229.00
66,-4592.00,9068.00,-11364.00,29.38,-361.00,-701.00,-168.00
67,-4364.00,8972.00,-10840.00,29.38,-327.00,-303.00,-204.00
68,-4420.00,8760.00,-11008.00,29.33,-883.00,90.00,5.00
69,-4420.00,8996.00,-11000.00,29.33,-1072.00,-42.00,-154.00
70,-4356.00,9208.00,-11004.00,29.38,-486.00,-282.00,-268.00
71,-4352.00,9072.00,-10984.00,29.42,-962.00,-231.00,23.00
72,-4432.00,9168.00,-10896.00,29.38,-640.00,-309.00,-650.00
73,-4528.00,9212.00,-10836.00,29.38,-761.00,-332.00,-274.00
74,-4472.00,9328.00,-10616.00,29.33,-346.00,-347.00,-181.00
75,-4500.00,9140.00,-10868.00,29.38,-533.00,-341.00,-19.00
76,-4748.00,9308.00,-10884.00,29.28,-125.00,-472.00,-321.00
77,-4680.00,9148.00,-10716.00,29.33,-84.00,-326.00,-245.00
78,-4456.00,8916.00,-10728.00,29.38,-298.00,-170.00,-229.00
79,-4700.00,9208.00,-10768.00,29.42,-355.00,-256.00,-140.00
80,-4680.00,9168.00,-10796.00,29.33,-395.00,-255.00,-139.00
81,-4696.00,9160.00,-10720.00,29.38,-430.00,-350.00,-400.00
82,-4696.00,9212.00,-11076.00,29.33,-315.00,-259.00,-224.00
83,-4752.00,9124.00,-10636.00,29.42,-352.00,-183.00,-244.00
84,-4804.00,9156.00,-10860.00,29.38,-432.00,-138.00,-271.00
85,-4716.00,9016.00,-10580.00,29.38,-284.00,-102.00,-81.00
86,-4808.00,9164.00,-10928.00,29.33,-336.00,-223.00,-171.00
87,-4728.00,9124.00,-10672.00,29.28,-161.00,-271.00,-147.00
88,-4716.00,9108.00,-10704.00,29.47,-207.00,-334.00,-173.00
89,-4720.00,9196.00,-10792.00,29.38,-365.00,-316.00,-197.00
90,-4764.00,9096.00,-10800.00,29.42,-379.00,-261.00,-85.00
91,-4728.00,9068.00,-10684.00,29.38,-628.00,-309.00,-250.00
92,-4888.00,9208.00,-10756.00,29.38,-571.00,-286.00,-274.00
93,-4852.00,9144.00,-10708.00,29.42,-315.00,-191.00,40.00
94,-5016.00,9184.00,-10756.00,29.28,-374.00,-270.00,-11.00
95,-5344.00,9384.00,-10772.00,29.42,-193.00,-326.00,-162.00
96,-4564.00,9244.00,-10816.00,29.47,-316.00,-222.00,-235.00
97,-5140.00,9020.00,-10632.00,29.38,-364.00,-227.00,-235.00
98,-5016.00,9104.00,-10752.00,29.33,-401.00,-267.00,-288.00
99,-5152.00,9308.00,-10720.00,29.47,-515.00,-277.00,-435.00
100,-4764.00,9132.00,-10632.00,29.47,-294.00,-300.00,-229.00
101,-4824.00,8728.00,-10492.00,29.38,-812.00,-321.00,-87.00
102,-4972.00,9200.00,-10608.00,29.42,-560.00,42.00,-167.00
103,-4960.00,9308.00,-10552.00,29.38,-74.00,71.00,-77.00
104,-5024.00,9228.00,-10424.00,29.42,-47.00,-56.00,-55.00
105,-5016.00,9140.00,-10484.00,29.42,-160.00,22.00,-185.00
106,-4984.00,9088.00,-10564.00,29.38,-312.00,80.00,-171.00
107,-5412.00,9180.00,-10540.00,29.28,-526.00,82.00,-178.00
108,-4960.00,9148.00,-10568.00,29.38,-565.00,61.00,-262.00
109,-5008.00,9108.00,-10540.00,29.38,-163.00,-93.00,-23.00
110,-4804.00,9224.00,-10644.00,29.52,-194.00,-206.00,-195.00
111,-4812.00,9304.00,-10788.00,29.42,-292.00,-121.00,-121.00
112,-4864.00,9176.00,-10732.00,29.47,-271.00,55.00,-83.00
113,-4824.00,9060.00,-10576.00,29.42,-401.00,98.00,-6.00
114,-4628.00,9116.00,-10632.00,29.42,-181.00,236.00,77.00
115,-4652.00,9056.00,-10740.00,29.38,-308.00,3.00,-10.00
116,-4512.00,9516.00,-11000.00,29.38,-242.00,-108.00,-376.00
117,-4628.00,9244.00,-10660.00,29.38,-346.00,-1.00,-112.00
118,-4672.00,8988.00,-10832.00,29.42,-322.00,-37.00,21.00
119,-4652.00,9200.00,-10700.00,29.47,-383.00,-102.00,-30.00
120,-4748.00,9124.00,-10900.00,29.42,-261.00,-227.00,-102.00
121,-4684.00,9120.00,-10616.00,29.42,-176.00,-443.00,-178.00
122,-4452.00,8712.00,-10752.00,29.42,-139.00,-276.00,97.00
123,-4756.00,9172.00,-10788.00,29.47,-333.00,-269.00,-209.00
124,-4736.00,9020.00,-10740.00,29.42,-328.00,-194.00,-51.00
125,-4808.00,9072.00,-10732.00,29.33,-572.00,-252.00,-218.00
126,-4620.00,9224.00,-10572.00,29.42,-640.00,-283.00,-297.00
127,-4824.00,9356.00,-10612.00,29.42,-647.00,-411.00,-539.00
128,-5080.00,9516.00,-10744.00,29.38,-616.00,-860.00,-1034.00
129,-5624.00,10040.00,-10648.00,29.33,-424.00,-1205.00,-1181.00
130,-4852.00,9040.00,-10552.00,29.47,-230.00,-704.00,-433.00
131,-4432.00,8096.00,-10384.00,29.42,-193.00,-549.00,-230.00
132,-5276.00,9152.00,-10564.00,29.42,-344.00,-497.00,-436.00
133,-5420.00,9068.00,-10636.00,29.42,-447.00,-338.00,-355.00
134,-5328.00,9080.00,-10556.00,29.52,-591.00,-207.00,-451.00
135,-5560.00,9104.00,-10508.00,29.47,-755.00,-259.00,-419.00
136,-5308.00,9176.00,-10420.00,29.38,-419.00,-193.00,-158.00
137,-5564.00,9260.00,-10552.00,29.47,-413.00,-267.00,-195.00
138,-5316.00,9156.00,-10576.00,29.47,-413.00,-251.00,-84.00
139,-5304.00,9128.00,-10412.00,29.42,-410.00,-186.00,-163.00
140,-5448.00,9196.00,-10416.00,29.42,-341.00,-142.00,-73.00
141,-5292.00,9180.00,-10348.00,29.47,-256.00,-138.00,-33.00
142,-5452.00,9128.00,-10288.00,29.47,-307.00,-103.00,-57.00
143,-5336.00,9144.00,-10380.00,29.52,-239.00,-108.00,-25.00
144,-5492.00,9176.00,-10392.00,29.42,-293.00,-155.00,-54.00
145,-5444.00,9144.00,-10448.00,29.47,-309.00,-113.00,-110.00
146,-5444.00,9112.00,-10508.00,29.47,-382.00,-97.00,-80.00
147,-5476.00,9240.00,-10456.00,29.42,-296.00,-91.00,-124.00
148,-5428.00,9044.00,-10372.00,29.52,-406.00,-38.00,-31.00
149,-5408.00,9136.00,-10432.00,29.38,-328.00,-155.00,-67.00
150,-5360.00,9164.00,-10560.00,29.47,-344.00,-133.00,-16.00
151,-5264.00,9108.00,-10232.00,29.33,-390.00,-144.00,-131.00
152,-5284.00,9076.00,-10496.00,29.42,-380.00,-203.00,-144.00
153,-5332.00,9148.00,-10416.00,29.42,-295.00,-206.00,-166.00
154,-5220.00,9116.00,-10368.00,29.42,-345.00,-241.00,-190.00
155,-5260.00,9248.00,-10568.00,29.42,-333.00,-250.00,-228.00
156,-5336.00,9216.00,-10372.00,29.42,-379.00,-166.00,-105.00
157,-5540.00,9592.00,-10528.00,29.42,-442.00,-201.00,-310.00
158,-5360.00,9156.00,-10528.00,29.52,-336.00,-156.00,-132.00
159,-5296.00,9228.00,-10576.00,29.47,-304.00,-149.00,-163.00
160,-5300.00,9176.00,-10492.00,29.47,-363.00,-180.00,-144.00
161,-5280.00,9144.00,-10388.00,29.47,-357.00,-148.00,-110.00
162,-5308.00,9152.00,-10472.00,29.47,-267.00,-209.00,-164.00
163,-5284.00,9240.00,-10388.00,29.47,-252.00,-183.00,-132.00
164,-5368.00,9156.00,-10404.00,29.52,-350.00,-190.00,-164.00
165,-5344.00,9200.00,-10628.00,29.52,-284.00,-229.00,-207.00
166,-5296.00,9088.00,-10496.00,29.52,-379.00,-129.00,-79.00
167,-5328.00,9056.00,-10520.00,29.38,-382.00,-196.00,-195.00
168,-5344.00,9172.00,-10396.00,29.47,-395.00,-45.00,-26.00
169,-5404.00,9152.00,-10500.00,29.38,-418.00,-135.00,-140.00
170,-5360.00,9104.00,-10412.00,29.47,-372.00,-211.00,-200.00
171,-5336.00,9084.00,-10608.00,29.38,-255.00,-193.00,-133.00
172,-5380.00,9120.00,-10512.00,29.38,-483.00,-121.00,-175.00
173,-5272.00,9048.00,-10560.00,29.47,-564.00,-11.00,-55.00
174,-5324.00,9204.00,-10368.00,29.52,-384.00,-165.00,-198.00
175,-5312.00,9220.00,-10512.00,29.42,-465.00,-181.00,-120.00
176,-5280.00,9032.00,-10508.00,29.52,-244.00,-176.00,-155.00
177,-5432.00,9288.00,-10464.00,29.57,-410.00,-128.00,-99.00
178,-5452.00,9192.00,-10520.00,29.38,-350.00,-174.00,-207.00
179,-5284.00,9172.00,-10420.00,29.47,-310.00,-166.00,-183.00
180,-5156.00,9360.00,-10560.00,29.38,-407.00,134.00,-39.00
181,-5208.00,9252.00,-10448.00,29.42,-234.00,-211.00,-193.00
182,-5324.00,9104.00,-10532.00,29.42,-280.00,-197.00,-158.00
183,-5316.00,9268.00,-10532.00,29.42,-362.00,-182.00,-183.00
184,-5332.00,9192.00,-10568.00,29.47,-338.00,-147.00,-149.00
185,-5236.00,9312.00,-10552.00,29.57,-339.00,-192.00,-186.00
186,-5260.00,9288.00,-10360.00,29.47,-335.00,-197.00,-166.00
187,-5304.00,9192.00,-10552.00,29.47,-386.00,-154.00,-157.00
188,-5248.00,9260.00,-10420.00,29.47,-395.00,-201.00,-187.00
189,-5244.00,9148.00,-10488.00,29.47,-259.00,-269.00,-134.00
190,-5320.00,9212.00,-10508.00,29.47,-377.00,-216.00,-203.00
191,-5356.00,9144.00,-10540.00,29.47,-369.00,-308.00,-212.00
192,-5380.00,9156.00,-10544.00,29.38,-410.00,-204.00,-165.00
193,-5220.00,9092.00,-10476.00,29.47,-284.00,-323.00,-165.00
194,-5340.00,9172.00,-10508.00,29.47,-258.00,-287.00,-212.00
195,-5392.00,9144.00,-10428.00,29.42,-386.00,-222.00,-172.00
196,-5360.00,9228.00,-10408.00,29.42,-411.00,-240.00,-288.00
197,-5388.00,9200.00,-10332.00,29.52,-376.00,-158.00,-134.00
198,-5480.00,9176.00,-10416.00,29.52,-458.00,-219.00,-291.00
199,-5380.00,9196.00,-10456.00,29.33,-233.00,-192.00,-121.00
200,-5384.00,9116.00,-10528.00,29.42,-319.00,-177.00,-139.00
201,-5356.00,9196.00,-10488.00,29.52,-390.00,-222.00,-195.00
202,-5432.00,9196.00,-10480.00,29.42,-305.00,-185.00,-116.00
203,-5392.00,9100.00,-10516.00,29.52,-334.00,-216.00,-143.00
204,-5412.00,9056.00,-10484.00,29.42,-238.00,-200.00,-153.00
205,-5408.00,9140.00,-10460.00,29.61,-356.00,-230.00,-209.00
206,-5392.00,9188.00,-10320.00,29.52,-378.00,-228.00,-165.00
207,-5404.00,9076.00,-10516.00,29.52,-359.00,-168.00,-95.00
208,-5440.00,9172.00,-10504.00,29.42,-442.00,-141.00,-223.00
209,-5452.00,9104.00,-10260.00,29.42,-334.00,-155.00,-141.00
210,-5496.00,9112.00,-10624.00,29.61,-339.00,-211.00,-115.00
211,-5388.00,9116.00,-10492.00,29.57,-302.00,-189.00,-120.00
212,-5500.00,9116.00,-10420.00,29.57,-397.00,-170.00,-118.00
213,-5464.00,9116.00,-10432.00,29.47,-292.00,-201.00,-121.00
214,-5436.00,9184.00,-10440.00,29.47,-259.00,-222.00,-172.00
215,-5392.00,9140.00,-10416.00,29.57,-415.00,-148.00,-138.00
216,-5592.00,9200.00,-10344.00,29.57,-373.00,-190.00,-149.00
217,-5568.00,9180.00,-10496.00,29.47,-238.00,-242.00,-231.00
218,-5284.00,9252.00,-10524.00,29.57,-447.00,-118.00,-139.00
219,-5592.00,9148.00,-10364.00,29.38,-447.00,-145.00,-112.00
220,-5484.00,9184.00,-10552.00,29.47,-357.00,-168.00,-109.00
221,-5400.00,9116.00,-10480.00,29.57,-333.00,-147.00,-120.00
222,-5384.00,9124.00,-10400.00,29.57,-382.00,-174.00,-146.00
223,-5188.00,9564.00,-10596.00,29.47,-234.00,-326.00,-347.00
224,-5304.00,9320.00,-10684.00,29.47,-304.00,-191.00,-254.00
225,-5268.00,9440.00,-10628.00,29.47,-414.00,-125.00,-107.00
226,-5236.00,9180.00,-10496.00,29.57,-416.00,-132.00,-168.00
227,-5380.00,9296.00,-10456.00,29.47,-411.00,-226.00,-221.00
228,-5352.00,9128.00,-10508.00,29.47,-393.00,-144.00,-70.00
229,-5540.00,9144.00,-10488.00,29.52,-447.00,-220.00,-199.00
230,-5492.00,9252.00,-10440.00,29.52,-333.00,-205.00,-145.00
231,-5424.00,9180.00,-10580.00,29.57,-440.00,-219.00,-181.00
232,-5348.00,9196.00,-10532.00,29.57,-384.00,-207.00,-178.00
233,-5324.00,9204.00,-10392.00,29.47,-266.00,-257.00,-166.00
234,-5292.00,9172.00,-10388.00,29.57,-376.00,-199.00,-120.00
235,-5452.00,9168.00,-10252.00,29.47,-381.00,-212.00,-206.00
236,-5384.00,9140.00,-10332.00,29.47,-435.00,-189.00,-159.00
237,-5484.00,9204.00,-10176.00,29.57,-318.00,-263.00,-199.00
238,-5460.00,9288.00,-10368.00,29.47,-352.00,-164.00,-110.00
239,-5304.00,9288.00,-10416.00,29.57,-384.00,-142.00,-181.00
240,-5716.00,9272.00,-10344.00,29.47,-332.00,-197.00,-129.00
241,-5416.00,9264.00,-10436.00,29.57,-378.00,-185.00,-161.00
242,-5548.00,9212.00,-10424.00,29.47,-373.00,-169.00,-163.00
243,-5524.00,9200.00,-10292.00,29.57,-298.00,-204.00,-152.00
244,-5388.00,9128.00,-10328.00,29.57,-319.00,-187.00,-161.00
245,-5444.00,9128.00,-10400.00,29.61,-319.00,-190.00,-214.00
246,-5412.00,9260.00,-10452.00,29.52,-345.00,-167.00,-182.00
247,-5380.00,9236.00,-10340.00,29.52,-371.00,-219.00,-158.00
248,-5496.00,9156.00,-1°
Sample,aX,aY,az,Temp,gX,gY,gz
1,-5616.00,9384.00,-10400.00,29.57,-387.00,-145.00,-93.00
2,-5484.00,9320.00,-10272.00,29.57,-473.00,-167.00,-184.00
3,-5644.00,9344.00,-10372.00,29.42,-269.00,-235.00,-196.00
4,-5544.00,9316.00,-10200.00,29.57,-322.00,-247.00,-141.00
5,-5720.00,9296.00,-10304.00,29.42,-399.00,-182.00,-182.00
6,-5584.00,9312.00,-10364.00,29.52,-314.00,-218.00,-103.00
7,-5528.00,9368.00,-10244.00,29.66,-252.00,-177.00,-147.00
8,-5608.00,9216.00,-10196.00,29.52,-485.00,-139.00,-124.00
9,-5624.00,9260.00,-10284.00,29.47,-350.00,-141.00,-162.00
10,-5516.00,9312.00,-10188.00,29.47,-379.00,-193.00,-190.00
11,-5508.00,9424.00,-10236.00,29.52,-316.00,-157.00,-140.00
12,-5592.00,9340.00,-10152.00,29.47,-418.00,-115.00,-65.00
13,-5608.00,9296.00,-10264.00,29.57,-389.00,-142.00,-171.00
14,-5504.00,9288.00,-10220.00,29.52,-272.00,-181.00,-134.00
15,-5484.00,9328.00,-10504.00,29.52,-380.00,-190.00,-171.00
16,-5564.00,9332.00,-10300.00,29.66,-366.00,-173.00,-134.00
17,-5480.00,9400.00,-10248.00,29.47,-311.00,-175.00,-108.00
18,-5488.00,9336.00,-10224.00,29.52,-330.00,-197.00,-184.00
19,-5520.00,9404.00,-10148.00,29.52,-370.00,-188.00,-169.00
20,-5492.00,9304.00,-10380.00,29.57,-302.00,-240.00,-198.00
21,-5500.00,9268.00,-10256.00,29.57,-265.00,-265.00,-204.00
22,-5660.00,9276.00,-10332.00,29.52,-478.00,-172.00,-54.00
23,-5640.00,9236.00,-10292.00,29.57,-320.00,-201.00,-246.00
24,-5540.00,9312.00,-10124.00,29.57,-267.00,-220.00,-114.00
25,-5632.00,9324.00,-10348.00,29.57,-394.00,-177.00,-170.00
26,-5580.00,9300.00,-10300.00,29.52,-344.00,-203.00,-201.00
27,-5588.00,9332.00,-10188.00,29.66,-312.00,-232.00,-126.00
28,-5488.00,9240.00,-10316.00,29.66,-384.00,-197.00,-130.00
29,-5540.00,9340.00,-10300.00,29.57,-342.00,-227.00,-181.00
30,-5556.00,9372.00,-10348.00,29.66,-290.00,-232.00,-200.00
31,-5580.00,9288.00,-10208.00,29.52,-341.00,-261.00,-193.00
32,-5668.00,9272.00,-10244.00,29.61,-320.00,-202.00,-105.00
33,-5496.00,9272.00,-10196.00,29.57,-420.00,-210.00,-228.00
34,-5552.00,9344.00,-10220.00,29.57,-322.00,-220.00,-168.00
35,-5628.00,9320.00,-10260.00,29.66,-358.00,-193.00,-191.00
36,-5680.00,9204.00,-10276.00,29.52,-410.00,-178.00,-102.00
37,-5696.00,9284.00,-10192.00,29.52,-287.00,-241.00,-193.00
38,-5440.00,9208.00,-10132.00,29.57,-298.00,-188.00,-117.00
39,-5568.00,9292.00,-10280.00,29.57,-357.00,-180.00,-158.00
40,-5636.00,9308.00,-10176.00,29.61,-380.00,-167.00,-174.00
41,-5652.00,9196.00,-10348.00,29.52,-318.00,-223.00,-188.00
42,-5608.00,9336.00,-10264.00,29.52,-264.00,-208.00,-164.00
43,-5612.00,9372.00,-10204.00,29.57,-388.00,-197.00,-159.00
44,-5628.00,9300.00,-10136.00,29.57,-348.00,-218.00,-244.00
45,-5676.00,9176.00,-10228.00,29.57,-374.00,-170.00,-116.00
46,-5708.00,9248.00,-10152.00,29.61,-370.00,-176.00,-140.00
47,-5744.00,9328.00,-10124.00,29.61,-304.00,-205.00,-154.00
48,-5572.00,9332.00,-10384.00,29.47,-353.00,-199.00,-166.00
49,-5688.00,9156.00,-10272.00,29.57,-315.00,-175.00,-141.00
50,-5636.00,9340.00,-10264.00,29.66,-352.00,-199.00,-132.00
51,-5648.00,9308.00,-10308.00,29.57,-394.00,-132.00,-104.00
52,-5724.00,9204.00,-10256.00,29.61,-371.00,-198.00,-168.00
53,-5592.00,9388.00,-10256.00,29.61,-374.00,-184.00,-161.00
54,-5468.00,9304.00,-10304.00,29.57,-396.00,-109.00,-38.00
55,-5584.00,9220.00,-10172.00,29.61,-402.00,-92.00,-151.00
56,-5584.00,9336.00,-10076.00,29.61,-332.00,-175.00,-117.00
57,-5612.00,9336.00,-10288.00,29.57,-295.00,-185.00,-87.00
58,-5540.00,9304.00,-10256.00,29.57,-258.00,-192.00,-93.00
59,-5624.00,9280.00,-10248.00,29.61,-363.00,-190.00,-214.00
60,-5684.00,9228.00,-10332.00,29.52,-370.00,-141.00,-90.00
61,-5688.00,9356.00,-10128.00,29.57,-298.00,-150.00,-174.00
62,-5552.00,9256.00,-10376.00,29.57,-404.00,-152.00,-125.00
63,-5620.00,9376.00,-10336.00,29.61,-341.00,-183.00,-189.00
64,-5644.00,9316.00,-10264.00,29.61,-293.00,-194.00,-133.00
65,-5524.00,9208.00,-10352.00,29.57,-427.00,-171.00,-104.00
66,-5572.00,9272.00,-10268.00,29.57,-380.00,-197.00,-208.00
67,-5656.00,9268.00,-10316.00,29.57,-273.00,-215.00,-182.00
68,-5680.00,9404.00,-10100.00,29.57,-368.00,-205.00,-172.00
69,-5604.00,9288.00,-10312.00,29.52,-339.00,-224.00,-126.00
70,-5664.00,9288.00,-10400.00,29.61,-330.00,-237.00,-104.00
71,-5688.00,9264.00,-10272.00,29.61,-264.00,-227.00,-181.00
72,-5652.00,9320.00,-10184.00,29.57,-395.00,-202.00,-104.00
73,-5604.00,9364.00,-10308.00,29.47,-358.00,-207.00,-167.00
74,-5664.00,9312.00,-10060.00,29.71,-335.00,-208.00,-191.00
75,-5648.00,9360.00,-10144.00,29.61,-272.00,-224.00,-153.00
76,-5660.00,9316.00,-10264.00,29.57,-355.00,-188.00,-113.00
77,-5668.00,9276.00,-10328.00,29.47,-428.00,-182.00,-195.00
78,-5600.00,9368.00,-10276.00,29.57,-336.00,-198.00,-145.00
79,-5632.00,9280.00,-10348.00,29.61,-327.00,-172.00,-68.00
80,-5632.00,9308.00,-10168.00,29.66,-394.00,-206.00,-131.00
81,-5640.00,9388.00,-10248.00,29.57,-346.00,-236.00,-141.00
82,-5636.00,9300.00,-10084.00,29.66,-285.00,-198.00,-170.00
83,-5676.00,9368.00,-10260.00,29.61,-360.00,-187.00,-168.00
84,-5632.00,9324.00,-10248.00,29.61,-336.00,-192.00,-128.00
85,-5756.00,9360.00,-10052.00,29.57,-402.00,-187.00,-177.00
86,-5712.00,9292.00,-10180.00,29.57,-310.00,-266.00,-180.00
87,-5740.00,9276.00,-10240.00,29.57,-326.00,-185.00,-134.00
88,-5728.00,9324.00,-10200.00,29.57,-415.00,-210.00,-228.00
89,-5632.00,9328.00,-10368.00,29.61,-349.00,-168.00,-138.00
90,-5544.00,9284.00,-10088.00,29.52,-343.00,-191.00,-166.00
91,-5692.00,9220.00,-10240.00,29.71,-341.00,-213.00,-90.00
92,-5716.00,9332.00,-10216.00,29.57,-392.00,-232.00,-156.00
93,-5720.00,9404.00,-10200.00,29.57,-336.00,-189.00,-149.00
94,-5612.00,9316.00,-10184.00,29.57,-323.00,-224.00,-157.00
95,-5636.00,9304.00,-10316.00,29.61,-439.00,-168.00,-129.00
96,-5752.00,9284.00,-10172.00,29.61,-315.00,-219.00,-185.00
97,-5664.00,9248.00,-10056.00,29.52,-321.00,-156.00,-148.00
98,-5664.00,9236.00,-10128.00,29.66,-297.00,-233.00,-194.00
99,-5712.00,9392.00,-10144.00,29.57,-376.00,-235.00,-199.00
100,-5808.00,9260.00,-10276.00,29.57,-396.00,-179.00,-96.00
101,-5620.00,9212.00,-10204.00,29.61,-386.00,-176.00,-215.00
102,-5736.00,9360.00,-10180.00,29.61,-275.00,-202.00,-134.00
103,-5616.00,9280.00,-10340.00,29.61,-328.00,-198.00,-147.00
104,-5648.00,9260.00,-10176.00,29.61,-367.00,-175.00,-120.00
105,-5764.00,9244.00,-10328.00,29.52,-395.00,-165.00,-159.00
106,-5736.00,9256.00,-10212.00,29.57,-333.00,-141.00,-131.00
107,-5692.00,9356.00,-10196.00,29.57,-340.00,-178.00,-162.00
108,-5644.00,9376.00,-10152.00,29.66,-433.00,-117.00,-71.00
109,-5656.00,9324.00,-10188.00,29.71,-324.00,-125.00,-129.00
110,-5572.00,9348.00,-10064.00,29.57,-340.00,-164.00,-120.00
111,-5708.00,9320.00,-10116.00,29.57,-402.00,-190.00,-89.00
112,-5676.00,9324.00,-10088.00,29.61,-304.00,-237.00,-156.00
113,-5628.00,9260.00,-10284.00,29.71,-239.00,-169.00,-135.00
114,-5604.00,9324.00,-10188.00,29.66,-488.00,-159.00,-193.00
115,-5776.00,9300.00,-10176.00,29.57,-359.00,-153.00,-138.00
116,-5596.00,9340.00,-10112.00,29.57,-392.00,-112.00,-145.00
117,-5652.00,9392.00,-10196.00,29.66,-371.00,-137.00,-155.00
118,-5764.00,9440.00,-10240.00,29.57,-411.00,-157.00,-153.00
119,-5624.00,9388.00,-10148.00,29.57,-238.00,-152.00,-146.00
120,-5588.00,9300.00,-10128.00,29.66,-299.00,-157.00,-149.00
121,-5600.00,9452.00,-10284.00,29.66,-379.00,-127.00,-133.00
122,-5592.00,9348.00,-10172.00,29.57,-438.00,-164.00,-156.00
123,-5604.00,9300.00,-10288.00,29.66,-336.00,-181.00,-85.00
124,-5616.00,9348.00,-10068.00,29.66,-289.00,-264.00,-192.00
125,-5588.00,9416.00,-10320.00,29.66,-230.00,-229.00,-138.00
126,-5628.00,9256.00,-10116.00,29.57,-464.00,-223.00,-212.00
127,-5636.00,9336.00,-10288.00,29.57,-322.00,-226.00,-120.00
128,-5684.00,9308.00,-10188.00,29.47,-354.00,-219.00,-179.00
129,-5776.00,9408.00,-10160.00,29.57,-412.00,-212.00,-82.00
130,-5636.00,9384.00,-10084.00,29.66,-278.00,-278.00,-194.00
131,-5720.00,9212.00,-10104.00,29.57,-355.00,-201.00,-123.00
132,-5620.00,9324.00,-10200.00,29.57,-357.00,-207.00,-191.00
133,-5640.00,9320.00,-10168.00,29.57,-358.00,-238.00,-171.00
134,-5644.00,9296.00,-10100.00,29.61,-341.00,-217.00,-164.00
135,-5588.00,9348.00,-10196.00,29.52,-385.00,-195.00,-184.00
136,-5688.00,9332.00,-10300.00,29.61,-314.00,-265.00,-175.00
137,-5700.00,9420.00,-10176.00,29.52,-346.00,-234.00,-93.00
138,-5604.00,9336.00,-10268.00,29.61,-336.00,-199.00,-228.00
139,-5580.00,9380.00,-10060.00,29.71,-300.00,-207.00,-162.00
140,-5624.00,9312.00,-10196.00,29.52,-457.00,-202.00,-146.00
141,-5692.00,9512.00,-10224.00,29.61,-254.00,-205.00,-178.00
142,-5672.00,9376.00,-10084.00,29.61,-399.00,-206.00,-128.00
143,-5692.00,9372.00,-10200.00,29.71,-379.00,-199.00,-143.00
144,-5624.00,9384.00,-10168.00,29.61,-317.00,-187.00,-157.00
145,-5732.00,9384.00,-10204.00,29.61,-370.00,-229.00,-114.00
146,-5664.00,9416.00,-10284.00,29.57,-289.00,-208.00,-165.00
147,-5680.00,9256.00,-10052.00,29.66,-364.00,-213.00,-162.00
148,-5888.00,9388.00,-10120.00,29.47,-309.00,-237.00,-158.00
149,-5612.00,9320.00,-10356.00,29.66,-405.00,-106.00,-90.00
150,-5704.00,9332.00,-10120.00,29.66,-377.00,-154.00,-177.00
151,-5716.00,9340.00,-10004.00,29.66,-317.00,-192.00,-113.00
152,-5648.00,9352.00,-10172.00,29.66,-331.00,-202.00,-165.00
153,-5808.00,9372.00,-10096.00,29.57,-141.00,-240.00,-152.00
154,-5756.00,9240.00,-10172.00,29.66,-146.00,-380.00,-302.00
155,-5664.00,9364.00,-10324.00,29.66,5.00,-436.00,-325.00
156,-5652.00,9224.00,-10020.00,29.61,-39.00,-263.00,-211.00
157,-5848.00,9208.00,-10164.00,29.61,134.00,-210.00,-253.00
158,-5920.00,9240.00,-10376.00,29.61,19.00,-182.00,-108.00
159,-5756.00,9040.00,-9956.00,29.57,87.00,-264.00,-130.00
160,-5888.00,8812.00,-10020.00,29.52,-1029.00,-297.00,125.00
161,-5852.00,9512.00,-10592.00,29.61,394.00,-6.00,15.00
162,-5624.00,9188.00,-10120.00,29.71,-113.00,130.00,241.00
163,-5580.00,9296.00,-10504.00,29.75,-102.00,262.00,426.00
164,-5484.00,9228.00,-10080.00,29.57,-243.00,220.00,373.00
165,-5544.00,9216.00,-10364.00,29.61,182.00,-182.00,-134.00
166,-5324.00,9828.00,-10388.00,29.71,-1972.00,-7.00,2287.00
167,-5528.00,9296.00,-10340.00,29.71,-68.00,-123.00,-117.00
168,-5292.00,9352.00,-10328.00,29.57,160.00,-169.00,257.00
169,-5092.00,8708.00,-10380.00,29.61,-1147.00,-418.00,886.00
170,-5384.00,9236.00,-10280.00,29.61,-471.00,-195.00,-44.00
171,-5308.00,9316.00,-10324.00,29.71,-457.00,-141.00,-108.00
172,-5204.00,9520.00,-10260.00,29.61,-428.00,-151.00,-30.00
173,-5264.00,9348.00,-10376.00,29.71,-150.00,-195.00,-98.00
174,-5352.00,9304.00,-10416.00,29.57,-504.00,-28.00,-169.00
175,-5260.00,9464.00,-10308.00,29.57,-313.00,-43.00,-65.00
176,-5252.00,9340.00,-10324.00,29.61,-397.00,-208.00,-9.00
177,-5276.00,9516.00,-10240.00,29.52,-268.00,-275.00,-49.00
178,-5160.00,9428.00,-10268.00,29.66,-266.00,22.00,34.00
179,-5172.00,9512.00,-10260.00,29.52,-423.00,79.00,-42.00
180,-5176.00,9508.00,-10356.00,29.57,-276.00,11.00,24.00
181,-5144.00,9608.00,-10276.00,29.66,-240.00,-71.00,-50.00
182,-5160.00,9540.00,-10324.00,29.61,-176.00,-260.00,0.00
183,-5048.00,9504.00,-10408.00,29.75,-124.00,-221.00,102.00
184,-5212.00,9364.00,-10424.00,29.66,-273.00,-93.00,211.00
185,-5080.00,9480.00,-10464.00,29.61,-236.00,-85.00,170.00
186,-5024.00,9452.00,-10308.00,29.66,-374.00,112.00,251.00
187,-4884.00,8800.00,-10144.00,29.66,-946.00,12.00,197.00
188,-4868.00,9616.00,-10444.00,29.75,-451.00,218.00,-164.00
189,-4748.00,9564.00,-10292.00,29.75,-488.00,44.00,-101.00
190,-5028.00,9792.00,-10348.00,29.61,-409.00,-159.00,-289.00
191,-4680.00,9776.00,-10236.00,29.61,-426.00,-191.00,-163.00
192,-4952.00,9716.00,-10284.00,29.61,-202.00,-380.00,-223.00
193,-4788.00,9592.00,-10484.00,29.61,-31.00,-460.00,-179.00
194,-4844.00,9492.00,-10316.00,29.66,-179.00,-466.00,-444.00
195,-5104.00,9536.00,-10368.00,29.66,-217.00,-223.00,-190.00
196,-4928.00,9484.00,-10300.00,29.57,-375.00,-149.00,-216.00
197,-4952.00,9652.00,-10580.00,29.57,-357.00,-160.00,-245.00
198,-4940.00,9544.00,-10340.00,29.57,-438.00,111.00,29.00
199,-5028.00,9640.00,-10264.00,29.61,-640.00,-56.00,-95.00
200,-4860.00,9544.00,-10140.00,29.66,-372.00,-268.00,-133.00
201,-4984.00,9688.00,-10284.00,29.66,-306.00,-458.00,-351.00
202,-4784.00,9656.00,-10300.00,29.66,-364.00,-221.00,-95.00
203,-4936.00,9588.00,-10240.00,29.66,-365.00,-152.00,-183.00
204,-4948.00,9640.00,-10172.00,29.66,-418.00,-263.00,-168.00
205,-5024.00,9724.00,-10160.00,29.57,-319.00,-402.00,-382.00
206,-5108.00,9664.00,-10292.00,29.66,-516.00,-231.00,-117.00
207,-5016.00,9680.00,-10180.00,29.66,-501.00,-260.00,-167.00
208,-5020.00,9688.00,-10060.00,29.66,-436.00,-322.00,-227.00
209,-5020.00,9672.00,-10292.00,29.66,-298.00,-361.00,-267.00
210,-5044.00,9672.00,-10188.00,29.57,-406.00,-277.00,-255.00
211,-5168.00,9652.00,-10156.00,29.66,-342.00,-313.00,-248.00
212,-5044.00,9704.00,-10056.00,29.57,-279.00,-270.00,-190.00
213,-5188.00,9640.00,-10248.00,29.66,-395.00,-190.00,-159.00
214,-5132.00,9652.00,-10020.00,29.71,-316.00,-214.00,-163.00
215,-5180.00,9648.00,-10136.00,29.71,-363.00,-170.00,-157.00
216,-5196.00,9624.00,-10060.00,29.61,-316.00,-251.00,-200.00
217,-5184.00,9588.00,-10140.00,29.61,-238.00,-235.00,-125.00
218,-5124.00,9596.00,-10120.00,29.61,-431.00,-155.00,-117.00
219,-5224.00,9732.00,-10116.00,29.61,-324.00,-153.00,-94.00
220,-5164.00,9588.00,-9904.00,29.71,-367.00,-147.00,-112.00
221,-5088.00,9688.00,-10128.00,29.66,-337.00,-170.00,-119.00
222,-5132.00,9564.00,-10260.00,29.66,-326.00,-207.00,-116.00
223,-5224.00,9652.00,-10196.00,29.57,-268.00,-207.00,-130.00
224,-5140.00,9660.00,-10180.00,29.71,-381.00,-175.00,-148.00
225,-5140.00,9620.00,-10156.00,29.61,-355.00,-209.00,-129.00
226,-5080.00,9700.00,-10152.00,29.71,-407.00,-160.00,-129.00
227,-5144.00,9616.00,-10060.00,29.71,-320.00,-235.00,-146.00
228,-5144.00,9640.00,-10164.00,29.61,-261.00,-277.00,-247.00
229,-5148.00,9616.00,-10228.00,29.71,-352.00,-186.00,-58.00
230,-5216.00,9680.00,-10172.00,29.52,-337.00,-158.00,-166.00
231,-5204.00,9552.00,-10232.00,29.61,-284.00,-191.00,-123.00
232,-5148.00,9596.00,-10120.00,29.61,-453.00,-131.00,-72.00
233,-5128.00,9680.00,-10124.00,29.66,-293.00,-154.00,-178.00
234,-5116.00,9676.00,-10208.00,29.71,-387.00,-163.00,-104.00
235,-5196.00,9668.00,-10196.00,29.71,-307.00,-146.00,-132.00
236,-5020.00,9580.00,-10268.00,29.61,-372.00,-152.00,-145.00
237,-5060.00,9732.00,-10152.00,29.71,-414.00,-108.00,-48.00
238,-5112.00,9600.00,-10120.00,29.66,-303.00,-175.00,-184.00
239,-5108.00,9596.00,-10204.00,29.66,-370.00,-123.00,-87.00
240,-5040.00,9656.00,-10172.00,29.57,-338.00,-186.00,-168.00
241,-5088.00,9748.00,-10040.00,29.66,-320.00,-138.00,-130.00
242,-5060.00,9648.00,-10184.00,29.66,-477.00,-99.00,-114.00
243,-5152.00,9616.00,-10180.00,29.66,-377.00,-102.00,-141.00
244,-5132.00,9660.00,-10128.00,29.66,-380.00,-112.00,-71.00
245,-5268.00,9644.00,-10196.00,29.71,-405.00,-132.00,-97.00
246,-5052.00,9652.00,-10232.00,29.61,-300.00,-240.00,-204.00
247,-5052.00,9676.00,-10268.00,29.61,-294.00,-211.00,-138.00
248,-5072.00,9684.00,-10216.00,29.61,-370.00,-195.00,-164.00
249,-5196.00,9660.00,-10208.00,29.61,-298.00,-200.00,-124.00
250,-5156.00,9640.00,-10160.00,29.66,-391.00,-176.00,-115.00
251,-5076.00,9672.00,-10248.00,29.66,-355.00,-180.00,-123.00
252,-5184.00,9736.00,-10172.00,29.66,-209.00,-299.00,-202.00
253,-5076.00,9648.00,-10128.00,29.57,-398.00,-212.00,-103.00
254,-5128.00,9668.00,-10232.00,29.61,-323.00,-211.00,-169.00
255,-5036.00,9704.00,-10296.00,29.66,-296.00,-226.00,-194.00
256,-5080.00,9568.00,-10088.00,29.66,-430.00,-178.00,-158.00
257,-5128.00,9704.00,-10212.00,29.66,-376.00,-244.00,-164.00
258,-5084.00,9700.00,-10064.00,29.66,-271.00,-275.00,-189.00
259,-5100.00,9716.00,-10124.00,29.66,-330.00,-191.00,-134.00
260,-5236.00,9600.00,-10196.00,29.66,-388.00,-194.00,-137.00
261,-5136.00,9560.00,-10112.00,29.75,-261.00,-224.00,-179.00
262,-5228.00,9640.00,-10144.00,29.71,-382.00,-180.00,-124.00
263,-5236.00,9588.00,-10132.00,29.71,-352.00,-311.00,-173.00
264,-5204.00,9660.00,-10168.00,29.71,-250.00,-271.00,-99.00
265,-5148.00,9636.00,-10180.00,29.71,-397.00,-184.00,-199.00
266,-5228.00,9584.00,-10036.00,29.71,-397.00,-184.00,-133.00
267,-5176.00,9644.00,-10172.00,29.61,-326.00,-172.00,-122.00
268,-5156.00,9640.00,-10132.00,29.71,-344.00,-204.00,-145.00
269,-5168.00,9612.00,-10048.00,29.71,-330.00,-214.00,-194.00
270,-5164.00,9664.00,-10096.00,29.61,-317.00,-201.00,-140.00
271,-5200.00,9648.00,-10168.00,29.80,-314.00,-185.00,-225.00
272,-5244.00,9576.00,-10156.00,29.71,-393.00,-207.00,-159.00
273,-5260.00,9616.00,-10180.00,29.71,-346.00,-206.00,-111.00
274,-5256.00,9532.00,-10104.00,29.61,-400.00,-223.00,-179.00
275,-5148.00,9688.00,-10092.00,29.61,-264.00,-267.00,-191.00
276,-5148.00,9548.00,-10180.00,29.61,-337.00,-186.00,-97.00
277,-5284.00,9688.00,-10168.00,29.66,-364.00,-184.00,-168.00
278,-5244.00,9592.00,-10212.00,29.66,-286.00,-129.00,-152.00
279,-5320.00,9660.00,-9960.00,29.71,-398.00,-118.00,-144.00
280,-5332.00,9724.00,-10140.00,29.66,-339.00,-150.00,-94.00
281,-5168.00,9644.00,-10092.00,29.66,-278.00,-141.00,-132.00
282,-5188.00,9680.00,-10248.00,29.66,-350.00,-119.00,-102.00
283,-5212.00,9640.00,-10200.00,29.75,-395.00,-130.00,-129.00
284,-5224.00,9652.00,-10076.00,29.57,-370.00,-138.00,-117.00
285,-5268.00,9648.00,-10000.00,29.66,-343.00,-126.00,-128.00
286,-5144.00,9728.00,-10052.00,29.75,-413.00,-133.00,-133.00
287,-5172.00,9624.00,-10272.00,29.66,-303.00,-149.00,-130.00
288,-5152.00,9580.00,-10036.00,29.75,-563.00,-61.00,-161.00
289,-5128.00,9692.00,-10104.00,29.66,-405.00,-116.00,-147.00
290,-5312.00,9612.00,-10200.00,29.66,-424.00,-144.00,-98.00
291,-5100.00,9648.00,-10024.00,29.66,-410.00,-262.00,-131.00
292,-5164.00,9744.00,-10212.00,29.66,-386.00,-271.00,-147.00
293,-5180.00,9688.00,-10120.00,29.61,-324.00,-225.00,-115.00
294,-5156.00,9688.00,-10108.00,29.61,-392.00,-173.00,-114.00
295,-5180.00,9608.00,-10112.00,29.71,-369.00,-132.00,-115.00
296,-5084.00,9736.00,-10108.00,29.71,-341.00,-192.00,-166.00
297,-5136.00,9700.00,-9988.00,29.71,-267.00,-253.00,-200.00
298,-5140.00,9760.00,-10308.00,29.71,-320.00,-242.00,-108.00
299,-5228.00,9792.00,-10268.00,29.71,-315.00,-190.00,-148.00
300,-5164.00,9792.00,-10200.00,29.61,-212.00,-240.00,-235.00
301,-5116.00,9704.00,-10108.00,29.71,-311.00,-212.00,-152.00
302,-5228.00,9656.00,-10108.00,29.71,-280.00,-215.00,-144.00
303,-5132.00,9688.00,-10216.00,29.66,-262.00,-270.00,-165.00
304,-5160.00,9744.00,-10100.00,29.66,-309.00,-227.00,-179.00
305,-5124.00,9716.00,-10216.00,29.66,-374.00,-195.00,-120.00
306,-5248.00,9736.00,-10164.00,29.75,-324.00,-215.00,-144.00
307,-5120.00,9704.00,-10160.00,29.75,-366.00,-242.00,-158.00
308,-5248.00,9652.00,-9968.00,29.75,-280.00,-294.00,-226.00
309,-5144.00,9624.00,-10068.00,29.61,-402.00,-171.00,-101.00
310,-5296.00,9660.00,-10180.00,29.71,-392.00,-191.00,-173.00
311,-5220.00,9700.00,-10180.00,29.61,-320.00,-185.00,-102.00
312,-5272.00,9636.00,-10032.00,29.71,-372.00,-199.00,-133.00
313,-5276.00,9620.00,-10132.00,29.71,-379.00,-208.00,-131.00
314,-5184.00,9640.00,-10112.00,29.71,-337.00,-270.00,-155.00
315,-5216.00,9648.00,-10192.00,29.71,-325.00,-247.00,-131.00
316,-5212.00,9592.00,-10200.00,29.61,-412.00,-159.00,-137.00
317,-5308.00,9568.00,-10112.00,29.75,-316.00,-160.00,-106.00
318,-5320.00,9676.00,-10020.00,29.66,-249.00,-250.00,-149.00
319,-5276.00,9716.00,-10092.00,29.66,-212.00,-283.00,-191.00
320,-5176.00,9576.00,-10236.00,29.66,-306.00,-142.00,-69.00
321,-5296.00,9568.00,-9912.00,29.66,-323.00,-130.00,-165.00
322,-5260.00,9628.00,-10032.00,29.66,-290.00,-210.00,-142.00
323,-5232.00,9660.00,-10204.00,29.66,-268.00,-241.00,-203.00
324,-5304.00,9612.00,-10040.00,29.66,-333.00,-155.00,-140.00
325,-5264.00,9632.00,-10128.00,29.66,-440.00,-105.00,-112.00
326,-5280.00,9704.00,-10068.00,29.66,-338.00,-169.00,-140.00
327,-5280.00,9620.00,-10224.00,29.75,-391.00,-143.00,-157.00
328,-5212.00,9668.00,-10108.00,29.66,-384.00,-99.00,-116.00
329,-5236.00,9680.00,-9980.00,29.66,-380.00,-70.00,-80.00
330,-5224.00,9644.00,-10044.00,29.66,-397.00,-103.00,-105.00
331,-5244.00,9608.00,-10092.00,29.66,-310.00,-156.00,-143.00
332,-5140.00,9688.00,-10032.00,29.66,-482.00,-50.00,-91.00
333,-5188.00,9736.00,-10056.00,29.61,-369.00,-79.00,-110.00
334,-5136.00,9808.00,-10144.00,29.80,-345.00,-106.00,-142.00
335,-5200.00,9756.00,-10068.00,29.71,-420.00,-98.00,-57.00
336,-5288.00,9732.00,-10204.00,29.66,-324.00,-233.00,-139.00
337,-5220.00,9608.00,-10176.00,29.61,-360.00,-217.00,-153.00
338,-5128.00,9668.00,-10124.00,29.71,-408.00,-170.00,-103.00
339,-5124.00,9772.00,-10196.00,29.61,-374.00,-175.00,-166.00
340,-5152.00,9688.00,-10080.00,29.71,-346.00,-199.00,-190.00
341,-5192.00,9760.00,-10100.00,29.71,-327.00,-221.00,-160.00
342,-5128.00,9760.00,-10108.00,29.71,-241.00,-207.00,-162.00
343,-5160.00,9648.00,-10092.00,29.71,-310.00,-248.00,-170.00
344,-5272.00,9668.00,-10112.00,29.71,-114.00,-262.00,-227.00
345,-5224.00,9624.00,-10112.00,29.71,-190.00,-322.00,-324.00
346,-5168.00,9612.00,-10080.00,29.75,-355.00,-170.00,-177.00
347,-5300.00,9640.00,-10064.00,29.71,-429.00,-220.00,-155.00
348,-5308.00,9636.00,-10220.00,29.71,-273.00,-256.00,-161.00
349,-5216.00,9716.00,-10176.00,29.71,-271.00,-253.00,-179.00
350,-5288.00,9632.00,-10204.00,29.75,-298.00,-198.00,-168.00
351,-5316.00,9572.00,-10048.00,29.66,-422.00,-168.00,-102.00
352,-5156.00,9636.00,-10108.00,29.75,-299.00,-270.00,-166.00
353,-5352.00,9688.00,-10108.00,29.66,-342.00,-238.00,-130.00
354,-5312.00,9640.00,-10148.00,29.75,-404.00,-197.00,-140.00
355,-5228.00,9632.00,-10092.00,29.66,-356.00,-187.00,-159.00
356,-5368.00,9624.00,-10020.00,29.75,-399.00,-140.00,-103.00
357,-5244.00,9696.00,-10092.00,29.66,-318.00,-206.00,-127.00
358,-5340.00,9620.00,-10108.00,29.66,-369.00,-181.00,-123.00
359,-5344.00,9624.00,-10260.00,29.66,-277.00,-250.00,-132.00
360,-5320.00,9616.00,-10044.00,29.75,-255.00,-243.00,-199.00
361,-5264.00,9600.00,-10072.00,29.66,-238.00,-284.00,-238.00
362,-5284.00,9584.00,-10008.00,29.66,-402.00,-184.00,-125.00
363,-5292.00,9636.00,-10144.00,29.75,-383.00,-202.00,-122.00
364,-5248.00,9672.00,-10096.00,29.66,-347.00,-200.00,-165.00
365,-5300.00,9524.00,-10108.00,29.66,-375.00,-46.00,-9.00
366,-5292.00,9632.00,-10264.00,29.71,-577.00,-75.00,-115.00
367,-5244.00,9536.00,-10180.00,29.61,-316.00,-160.00,-84.00
368,-5216.00,9772.00,-10112.00,29.71,-396.00,-162.00,-128.00
369,-5332.00,9580.00,-10104.00,29.71,-325.00,-166.00,-103.00
370,-5260.00,9676.00,-10288.00,29.71,-355.00,-146.00,-129.00
371,-5268.00,9644.00,-10084.00,29.61,-341.00,-108.00,-55.00
372,-5260.00,9656.00,-10084.00,29.66,-411.00,-102.00,-116.00
373,-5272.00,9648.00,-9944.00,29.71,-343.00,-86.00,-58.00
374,-5304.00,9696.00,-10112.00,29.75,-376.00,-135.00,-129.00
375,-5208.00,9636.00,-10064.00,29.66,-358.00,-182.00,-163.00
376,-5304.00,9692.00,-10000.00,29.75,-342.00,-129.00,-73.00
377,-5108.00,9680.00,-10096.00,29.71,-462.00,-147.00,-146.00
378,-5236.00,9724.00,-10060.00,29.71,-245.00,-226.00,-138.00
379,-5168.00,9628.00,-10088.00,29.71,-420.00,-184.00,-124.00
380,-5392.00,9716.00,-10092.00,29.80,-295.00,-204.00,-130.00
381,-5280.00,9708.00,-10144.00,29.71,-321.00,-263.00,-168.00
382,-5188.00,9652.00,-10244.00,29.71,-236.00,-270.00,-145.00
383,-5200.00,9640.00,-10016.00,29.66,-380.00,-209.00,-144.00
384,-5296.00,9660.00,-9988.00,29.75,-342.00,-176.00,-118.00
385,-5196.00,9724.00,-10136.00,29.71,-353.00,-213.00,-131.00
386,-5244.00,9664.00,-10148.00,29.71,-268.00,-319.00,-194.00
387,-5244.00,9704.00,-10148.00,29.80,-284.00,-262.00,-136.00
388,-5216.00,9652.00,-10132.00,29.80,-374.00,-214.00,-200.00
389,-5180.00,9720.00,-10180.00,29.71,-337.00,-204.00,-171.00
390,-5212.00,9652.00,-10260.00,29.61,-440.00,-159.00,-116.00
391,-5268.00,9732.00,-10124.00,29.71,-278.00,-204.00,-91.00
392,-5412.00,9676.00,-10196.00,29.71,-313.00,-230.00,-201.00
393,-5204.00,9612.00,-9988.00,29.66,-310.00,-202.00,-141.00
394,-5268.00,9564.00,-10176.00,29.66,-392.00,-149.00,-109.00
395,-5348.00,9636.00,-10020.00,29.66,-340.00,-168.00,-147.00
396,-5300.00,9632.00,-10152.00,29.75,-352.00,-158.00,-134.00
397,-5268.00,9688.00,-9944.00,29.66,-324.00,-210.00,-159.00
398,-5360.00,9624.00,-10144.00,29.75,-258.00,-266.00,-185.00
399,-5208.00,9688.00,-10200.00,29.75,-408.00,-150.00,-73.00
400,-5404.00,9684.00,-10184.00,29.66,-377.00,-148.00,-117.00
401,-5272.00,9664.00,-10096.00,29.66,-312.00,-182.00,-156.00
402,-5312.00,9704.00,-10056.00,29.75,-399.00,-197.00,-127.00
403,-5288.00,9688.00,-10084.00,29.71,-306.00,-225.00,-149.00
404,-5152.00,9672.00,-10212.00,29.71,-357.00,-186.00,-101.00
405,-5348.00,9604.00,-10128.00,29.71,-338.00,-176.00,-172.00
406,-5320.00,9612.00,-10240.00,29.71,-354.00,-168.00,-149.00
407,-5304.00,9636.00,-10060.00,29.66,-297.00,-200.00,-130.00
408,-5300.00,9624.00,-9980.00,29.75,-330.00,-165.00,-145.00
409,-5332.00,9676.00,-9996.00,29.75,-375.00,-214.00,-185.00
410,-5260.00,9536.00,-10228.00,29.66,-285.00,-235.00,-199.00
411,-5468.00,9616.00,-10292.00,29.66,-344.00,-141.00,-84.00
412,-5264.00,9656.00,-10068.00,29.75,-370.00,-139.00,-175.00
413,-5312.00,9544.00,-10000.00,29.66,-329.00,-133.00,-107.00
414,-5316.00,9620.00,-10116.00,29.75,-460.00,-85.00,-85.00
415,-5364.00,9756.00,-10040.00,29.71,-341.00,-144.00,-112.00
416,-5244.00,9608.00,-9920.00,29.61,-322.00,-164.00,-156.00
417,-5192.00,9576.00,-10164.00,29.80,-387.00,-145.00,-88.00
418,-5344.00,9668.00,-10164.00,29.80,-404.00,-86.00,-80.00
419,-5296.00,9628.00,-10028.00,29.75,-402.00,-137.00,-113.00
420,-5228.00,9664.00,-10016.00,29.66,-352.00,-111.00,-111.00
421,-5172.00,9636.00,-10084.00,29.75,-341.00,-127.00,-146.00
422,-5312.00,9668.00,-9944.00,29.71,-388.00,-189.00,-150.00
423,-5220.00,9632.00,-10168.00,29.75,-334.00,-104.00,-53.00
424,-5136.00,9684.00,-10116.00,29.75,-453.00,-111.00,-142.00
425,-5220.00,9688.00,-10112.00,29.75,-301.00,-187.00,-109.00
426,-5184.00,9700.00,-10184.00,29.75,-416.00,-196.00,-149.00
427,-5316.00,9728.00,-10140.00,29.75,-256.00,-204.00,-130.00
428,-5220.00,9616.00,-10096.00,29.75,-258.00,-274.00,-196.00
429,-5248.00,9600.00,-10136.00,29.66,-318.00,-205.00,-99.00
430,-5288.00,9696.00,-10152.00,29.75,-368.00,-210.00,-128.00
431,-5260.00,9644.00,-10008.00,29.66,-258.00,-259.00,-177.00
432,-5204.00,9648.00,-10144.00,29.75,-345.00,-183.00,-149.00
433,-5256.00,9648.00,-10020.00,29.75,-274.00,-282.00,-184.00
434,-5216.00,9640.00,-10196.00,29.75,-278.00,-255.00,-214.00
435,-5248.00,9604.00,-9928.00,29.75,-409.00,-181.00,-138.00
436,-5220.00,9696.00,-10084.00,29.66,-329.00,-212.00,-133.00
437,-5204.00,9592.00,-10244.00,29.66,-333.00,-192.00,-184.00
438,-5332.00,9652.00,-10000.00,29.66,-346.00,-197.00,-205.00
439,-5344.00,9592.00,-9960.00,29.66,-304.00,-246.00,-182.00
440,-5176.00,9628.00,-10072.00,29.75,-327.00,-243.00,-136.00
441,-5360.00,9676.00,-10168.00,29.85,-307.00,-272.00,-182.00
442,-5236.00,9652.00,-10088.00,29.75,-339.00,-251.00,-183.00
443,-5244.00,9620.00,-10056.00,29.75,-493.00,-159.00,-81.00
444,-5396.00,9592.00,-10032.00,29.66,-390.00,-241.00,-205.00
445,-5304.00,9616.00,-10000.00,29.66,-301.00,-313.00,-198.00
446,-5548.00,9384.00,-10152.00,29.66,-360.00,-225.00,-80.00
447,-5268.00,9720.00,-9976.00,29.75,-327.00,-129.00,-159.00
448,-5320.00,9672.00,-10076.00,29.71,-336.00,-176.00,-111.00
449,-5444.00,9828.00,-10160.00,29.71,-364.00,-157.00,-125.00
450,-5264.00,9780.00,-10052.00,29.75,-294.00,-164.00,-117.00
451,-5316.00,9680.00,-9984.00,29.75,-339.00,-180.00,-99.00
452,-5336.00,9680.00,-10056.00,29.71,-340.00,-152.00,-123.00
453,-5356.00,9576.00,-10008.00,29.71,-321.00,-144.00,-112.00
454,-5268.00,9652.00,-10108.00,29.71,-305.00,-193.00,-173.00
455,-5268.00,9740.00,-10112.00,29.80,-364.00,-177.00,-169.00
456,-5376.00,9708.00,-10024.00,29.71,-374.00,-220.00,-182.00
457,-5380.00,9676.00,-10056.00,29.75,-256.00,-195.00,-136.00
458,-5204.00,9476.00,-10168.00,29.75,-454.00,-115.00,-34.00
459,-5248.00,9708.00,-10044.00,29.75,-411.00,-99.00,-76.00
460,-5292.00,9680.00,-10232.00,29.71,-330.00,-119.00,-97.00
461,-5316.00,9664.00,-10128.00,29.71,-364.00,-102.00,-117.00
462,-5300.00,9748.00,-10112.00,29.71,-373.00,-93.00,-76.00
463,-5324.00,9708.00,-9976.00,29.71,-325.00,-144.00,-113.00
464,-5228.00,9640.00,-10220.00,29.75,-378.00,-124.00,-93.00
465,-5244.00,9652.00,-10196.00,29.66,-374.00,-98.00,-125.00
466,-5188.00,9636.00,-10152.00,29.75,-420.00,-121.00,-65.00
467,-5180.00,9784.00,-10176.00,29.80,-389.00,-171.00,-121.00
468,-5156.00,9716.00,-10068.00,29.75,-321.00,-220.00,-156.00
469,-5232.00,9744.00,-10196.00,29.75,-428.00,-118.00,-58.00
470,-5196.00,9744.00,-9956.00,29.71,-421.00,-138.00,-173.00
471,-5152.00,9712.00,-10180.00,29.80,-289.00,-246.00,-181.00
472,-5132.00,9708.00,-10112.00,29.80,-346.00,-174.00,-146.00
473,-5148.00,9700.00,-10024.00,29.80,-294.00,-230.00,-142.00
474,-5224.00,9736.00,-10064.00,29.71,-310.00,-237.00,-150.00
475,-5184.00,9740.00,-10108.00,29.71,-308.00,-178.00,-117.00
476,-5168.00,9700.00,-10120.00,29.71,-364.00,-158.00,-147.00
477,-5248.00,9660.00,-10060.00,29.80,-308.00,-197.00,-141.00
478,-5192.00,9708.00,-10140.00,29.80,-309.00,-255.00,-202.00
479,-5176.00,9732.00,-10192.00,29.66,-232.00,-282.00,-214.00
480,-5260.00,9680.00,-10040.00,29.75,-383.00,-186.00,-123.00
481,-5260.00,9708.00,-10072.00,29.66,-397.00,-156.00,-201.00
482,-5220.00,9736.00,-10064.00,29.75,-289.00,-208.00,-176.00
483,-5152.00,9700.00,-10044.00,29.85,-439.00,-195.00,-148.00
484,-5236.00,9660.00,-10020.00,29.66,-309.00,-242.00,-176.00
485,-5188.00,9728.00,-10072.00,29.71,-349.00,-239.00,-161.00
486,-5248.00,9724.00,-10196.00,29.80,-338.00,-169.00,-150.00
487,-5340.00,9724.00,-10124.00,29.71,-314.00,-198.00,-156.00
488,-5220.00,9724.00,-10052.00,29.71,-344.00,-185.00,-171.00
489,-5212.00,9648.00,-9980.00,29.80,-366.00,-203.00,-151.00
490,-5244.00,9780.00,-10104.00,29.80,-323.00,-261.00,-240.00
491,-5320.00,9696.00,-10100.00,29.71,-370.00,-199.00,-44.00
492,-5188.00,9672.00,-10036.00,29.80,-342.00,-138.00,-205.00
493,-5288.00,9648.00,-10116.00,29.80,-329.00,-192.00,-145.00
494,-5324.00,9708.00,-10132.00,29.80,-406.00,-158.00,-125.00
495,-5380.00,9620.00,-10012.00,29.75,-299.00,-202.00,-124.00
496,-5288.00,9720.00,-10092.00,29.75,-386.00,-167.00,-160.00
497,-5272.00,9616.00,-10044.00,29.75,-371.00,-132.00,-133.00
498,-5192.00,9640.00,-10088.00,29.75,-394.00,-163.00,-140.00
499,-5304.00,9744.00,-10168.00,29.66,-352.00,-152.00,-121.00
500,-5172.00,9692.00,-10048.00,29.66,-366.00,-100.00,-134.00
501,-5292.00,9656.00,-9944.00,29.75,-382.00,-162.00,-138.00
502,-5300.00,9744.00,-10280.00,29.75,-290.00,-154.00,-169.00
503,-5200.00,9740.00,-9880.00,29.66,-439.00,-78.00,-135.00
504,-5148.00,9768.00,-9888.00,29.85,-381.00,-72.00,-87.00
505,-5172.00,9788.00,-10032.00,29.71,-404.00,-92.00,-107.00
506,-5236.00,9720.00,-10140.00,29.71,-338.00,-154.00,-112.00
507,-5108.00,9584.00,-10196.00,29.80,-300.00,-153.00,-88.00
508,-5224.00,9644.00,-9960.00,29.80,-583.00,-116.00,-89.00
509,-5180.00,9760.00,-10040.00,29.80,-276.00,-177.00,-77.00
510,-5300.00,9752.00,-10028.00,29.71,-378.00,-222.00,-147.00
511,-5160.00,9668.00,-10168.00,29.80,-361.00,-164.00,-158.00
512,-5092.00,9660.00,-10048.00,29.80,-362.00,-209.00,-197.00
513,-5236.00,9728.00,-9916.00,29.80,-272.00,-240.00,-180.00
514,-5200.00,9692.00,-10072.00,29.80,-403.00,-214.00,-161.00
515,-5164.00,9784.00,-10056.00,29.71,-309.00,-228.00,-158.00
516,-5156.00,9784.00,-10012.00,29.75,-357.00,-245.00,-131.00
517,-5200.00,9732.00,-10112.00,29.75,-395.00,-182.00,-137.00
518,-5288.00,9748.00,-10152.00,29.75,-359.00,-303.00,-187.00
519,-5284.00,9712.00,-10024.00,29.75,-388.00,-233.00,-96.00
520,-5196.00,9732.00,-10100.00,29.85,-336.00,-223.00,-187.00
521,-5244.00,9800.00,-10076.00,29.85,-395.00,-170.00,-117.00
522,-5368.00,9792.00,-10048.00,29.66,-381.00,-216.00,-135.00
523,-5380.00,9692.00,-10092.00,29.75,-345.00,-213.00,-131.00
524,-5276.00,9776.00,-10072.00,29.66,-292.00,-286.00,-213.00
525,-5232.00,9760.00,-10012.00,29.75,-423.00,-201.00,-114.00
526,-5348.00,9752.00,-10200.00,29.80,-380.00,-165.00,-133.00
527,-5296.00,9740.00,-10112.00,29.71,-362.00,-200.00,-174.00
528,-5240.00,9760.00,-10044.00,29.80,-412.00,-196.00,-160.00
529,-5272.00,9808.00,-10060.00,29.80,-335.00,-197.00,-159.00
530,-5140.00,9772.00,-9988.00,29.85,-329.00,-211.00,-135.00
531,-5272.00,9844.00,-10088.00,29.80,-357.00,-193.00,-150.00
532,-5268.00,9716.00,-10144.00,29.80,-316.00,-196.00,-133.00
533,-5192.00,9840.00,-10072.00,29.85,-327.00,-157.00,-147.00
534,-5256.00,9824.00,-10212.00,29.75,-324.00,-155.00,-133.00
535,-5120.00,9760.00,-10032.00,29.85,-346.00,-211.00,-198.00
536,-5296.00,9800.00,-10140.00,29.66,-307.00,-209.00,-171.00
537,-5120.00,9716.00,-9916.00,29.75,-370.00,-179.00,-207.00
538,-5312.00,9840.00,-10044.00,29.75,-371.00,-182.00,-147.00
539,-5324.00,9628.00,-10008.00,29.75,-308.00,-213.00,-163.00
540,-5356.00,9792.00,-9976.00,29.66,-352.00,-191.00,-175.00
541,-5320.00,9792.00,-10024.00,29.75,-340.00,-168.00,-100.00
542,-5360.00,9792.00,-10008.00,29.75,-363.00,-148.00,-99.00
543,-5304.00,9792.00,-9896.00,29.66,-346.00,-159.00,-150.00
544,-5268.00,9804.00,-9964.00,29.75,-361.00,-106.00,-164.00
545,-5276.00,9800.00,-10024.00,29.85,-358.00,-116.00,-102.00
546,-5304.00,9680.00,-10000.00,29.75,-360.00,-107.00,-126.00
547,-5292.00,9744.00,-10072.00,29.85,-410.00,-175.00,-123.00
548,-5236.00,9816.00,-10160.00,29.89,-225.00,-211.00,-160.00
549,-5160.00,9760.00,-10156.00,29.71,-506.00,-89.00,-89.00
550,-5244.00,9756.00,-9936.00,29.66,-344.00,-115.00,-145.00
551,-5288.00,9728.00,-10132.00,29.85,-313.00,-131.00,-128.00
552,-5232.00,9736.00,-9924.00,29.80,-454.00,-108.00,-113.00
553,-5280.00,9804.00,-10072.00,29.66,-299.00,-213.00,-122.00
554,-5216.00,9872.00,-10012.00,29.80,-302.00,-171.00,-125.00
555,-5172.00,9808.00,-10020.00,29.80,-345.00,-138.00,-87.00
556,-5140.00,9828.00,-10076.00,29.80,-354.00,-241.00,-145.00
557,-5196.00,9844.00,-9944.00,29.80,-319.00,-211.00,-130.00
558,-5252.00,9788.00,-10172.00,29.85,-409.00,-222.00,-159.00
559,-5172.00,9924.00,-9964.00,29.71,-240.00,-243.00,-214.00
560,-5192.00,9820.00,-9916.00,29.75,-426.00,-173.00,-90.00
561,-5344.00,9768.00,-10032.00,29.75,-267.00,-240.00,-221.00
562,-5212.00,9840.00,-9980.00,29.75,-286.00,-244.00,-209.00
563,-5320.00,9784.00,-10040.00,29.85,-404.00,-194.00,-162.00
564,-5172.00,9764.00,-9980.00,29.75,-356.00,-256.00,-168.00
565,-5272.00,9796.00,-9960.00,29.71,-309.00,-271.00,-160.00
566,-5264.00,9772.00,-9928.00,29.80,-347.00,-206.00,-149.00
567,-5384.00,9740.00,-10028.00,29.80,-366.00,-234.00,-200.00
568,-5268.00,9716.00,-9980.00,29.80,-334.00,-212.00,-150.00
569,-5316.00,9744.00,-9828.00,29.75,-359.00,-240.00,-198.00
570,-5248.00,9804.00,-9904.00,29.75,-339.00,-261.00,-215.00
571,-5324.00,9736.00,-10172.00,29.75,-325.00,-229.00,-119.00
572,-5252.00,9724.00,-10084.00,29.66,-335.00,-202.00,-244.00
573,-5328.00,9812.00,-9868.00,29.66,-354.00,-203.00,-141.00
574,-5368.00,9812.00,-9888.00,29.80,-397.00,-183.00,-121.00
575,-5252.00,9768.00,-10028.00,29.71,-349.00,-199.00,-132.00
576,-5416.00,9804.00,-9984.00,29.71,-366.00,-227.00,-159.00
577,-5316.00,9860.00,-10140.00,29.71,-308.00,-190.00,-152.00
578,-5392.00,9704.00,-10004.00,29.80,-333.00,-170.00,-161.00
579,-5276.00,9792.00,-9892.00,29.80,-358.00,-184.00,-175.00
580,-5288.00,9732.00,-9932.00,29.80,-402.00,-179.00,-144.00
581,-5300.00,9700.00,-9928.00,29.89,-311.00,-202.00,-164.00
582,-5316.00,9792.00,-10084.00,29.75,-256.00,-234.00,-188.00
583,-5332.00,9828.00,-9996.00,29.80,-338.00,-219.00,-146.00
584,-5464.00,9780.00,-9964.00,29.75,-498.00,-144.00,-157.00
585,-5404.00,9816.00,-10036.00,29.66,-364.00,-149.00,-124.00
586,-5204.00,9752.00,-9972.00,29.75,-397.00,-172.00,-131.00
587,-5268.00,9816.00,-9952.00,29.85,-230.00,-207.00,-134.00
588,-5388.00,9792.00,-9876.00,29.85,-351.00,-234.00,-167.00
589,-5240.00,9732.00,-9992.00,29.80,-358.00,-127.00,-101.00
590,-5412.00,9804.00,-10072.00,29.80,-320.00,-187.00,-173.00
591,-5288.00,9752.00,-9832.00,29.80,-329.00,-144.00,-159.00
592,-5324.00,9740.00,-9976.00,29.80,-405.00,-173.00,-63.00
593,-5332.00,9892.00,-9968.00,29.80,-404.00,-192.00,-106.00
594,-5248.00,9828.00,-10080.00,29.85,-273.00,-159.00,-144.00
595,-5264.00,9716.00,-9968.00,29.80,-474.00,-105.00,-80.00
596,-5344.00,9732.00,-9884.00,29.85,-403.00,-117.00,-157.00
597,-5280.00,9868.00,-9992.00,29.75,-376.00,-105.00,-94.00
598,-5272.00,9800.00,-10080.00,29.71,-412.00,-151.00,-175.00
599,-5280.00,9780.00,-10092.00,29.75,-292.00,-155.00,-57.00
600,-5308.00,9848.00,-9884.00,29.61,-354.00,-184.00,-134.00
601,-5236.00,9860.00,-9984.00,29.80,-412.00,-130.00,-62.00
602,-5304.00,9764.00,-9936.00,29.85,-401.00,-148.00,-114.00
603,-5256.00,9844.00,-10020.00,29.75,-378.00,-154.00,-110.00
604,-5248.00,9776.00,-9876.00,29.75,-336.00,-190.00,-168.00
605,-5136.00,9872.00,-10036.00,29.75,-343.00,-181.00,-161.00
606,-5236.00,9928.00,-10048.00,29.75,-444.00,-149.00,-111.00
607,-5212.00,9748.00,-9876.00,29.85,-193.00,-238.00,-230.00
608,-5268.00,9932.00,-10048.00,29.75,-350.00,-227.00,-173.00
609,-5208.00,9884.00,-10004.00,29.75,-427.00,-143.00,-137.00
610,-5244.00,9800.00,-10044.00,29.75,-329.00,-231.00,-140.00
611,-5160.00,9736.00,-9940.00,29.75,-239.00,-262.00,-168.00
612,-5212.00,9748.00,-9956.00,29.85,-242.00,-203.00,-156.00
613,-5248.00,9880.00,-9908.00,29.80,-321.00,-167.00,-156.00
614,-5352.00,9748.00,-9992.00,29.80,-390.00,-187.00,-122.00
615,-5256.00,9804.00,-10080.00,29.85,-310.00,-249.00,-179.00
616,-5332.00,9812.00,-9888.00,29.89,-256.00,-275.00,-223.00
617,-5244.00,9720.00,-10044.00,29.75,-407.00,-220.00,-143.00
618,-5276.00,9788.00,-9964.00,29.75,-359.00,-237.00,-226.00
619,-5272.00,9860.00,-9904.00,29.75,-209.00,-274.00,-235.00
620,-5328.00,9744.00,-10096.00,29.85,-199.00,-327.00,-437.00
621,-5412.00,9948.00,-10244.00,29.85,-289.00,-640.00,-444.00
622,-5388.00,9604.00,-9980.00,29.75,-122.00,-708.00,-557.00
623,-5456.00,9452.00,-9768.00,29.85,638.00,-663.00,-722.00
624,-5908.00,9976.00,-10224.00,29.71,366.00,-875.00,-1049.00
625,-5484.00,9420.00,-10128.00,29.80,348.00,-267.00,-774.00
626,-5784.00,9448.00,-10308.00,29.80,-314.00,-474.00,-284.00
627,-5656.00,9332.00,-10024.00,29.80,151.00,-466.00,-32.00
628,-5816.00,9264.00,-10180.00,29.80,-9.00,-633.00,-579.00
629,-6080.00,9464.00,-10344.00,29.75,-287.00,-182.00,-102.00
630,-5888.00,9472.00,-9916.00,29.85,-236.00,-372.00,-310.00
631,-5884.00,9492.00,-9952.00,29.75,-351.00,-275.00,-129.00
632,-5820.00,9292.00,-9784.00,29.85,-72.00,-357.00,-174.00
633,-6048.00,9364.00,-9968.00,29.80,-148.00,-731.00,-780.00
634,-6148.00,9364.00,-10076.00,29.80,-120.00,-317.00,-426.00
635,-6072.00,9220.00,-9944.00,29.80,-336.00,-305.00,55.00
636,-6064.00,9524.00,-10300.00,29.85,-747.00,-259.00,-331.00
637,-5016.00,9488.00,-10084.00,29.80,-874.00,1390.00,391.00
638,-1144.00,6980.00,-9196.00,29.85,2465.00,4667.00,-1315.00
639,-232.00,5572.00,-8604.00,29.75,-439.00,1882.00,-1764.00
640,-5332.00,7420.00,-9636.00,29.75,-137.00,69.00,-2974.00
641,-6496.00,7844.00,-10736.00,29.85,2233.00,936.00,-3002.00
642,-7048.00,7368.00,-11160.00,29.85,1700.00,-926.00,-1865.00
643,-7704.00,7200.00,-10952.00,29.75,2153.00,-1811.00,-2022.00
644,-6416.00,8524.00,-12952.00,29.71,2332.00,-1448.00,-1519.00
645,-5752.00,7640.00,-11920.00,29.85,917.00,-84.00,-406.00
646,-6324.00,5352.00,-11088.00,29.80,1566.00,53.00,-1862.00
647,-7440.00,6428.00,-12020.00,29.71,342.00,-641.00,-1610.00
648,-7676.00,6388.00,-10348.00,29.89,239.00,-1767.00,-1432.00
649,-7120.00,7200.00,-6952.00,29.85,399.00,-951.00,-3687.00
650,-7140.00,5980.00,-11380.00,29.85,271.00,-1764.00,-684.00
651,-7084.00,6108.00,-11928.00,29.85,326.00,-1071.00,-908.00
652,-7288.00,5784.00,-11688.00,29.75,296.00,-292.00,-1104.00
653,-7724.00,5928.00,-11168.00,29.75,327.00,-282.00,-896.00
654,-7804.00,5824.00,-11088.00,29.75,97.00,-628.00,-696.00
655,-7680.00,5920.00,-11320.00,29.75,-1101.00,-865.00,133.00
656,-7632.00,5928.00,-11400.00,29.75,-215.00,-364.00,-471.00
657,-7560.00,5804.00,-11364.00,29.75,-273.00,-162.00,-355.00
658,-7732.00,5732.00,-11180.00,29.75,-574.00,186.00,-111.00
659,-7948.00,6176.00,-11188.00,29.85,-1040.00,47.00,133.00
660,-7688.00,6172.00,-11204.00,29.75,-1409.00,-269.00,522.00
661,-7564.00,6476.00,-11092.00,29.85,-1978.00,-486.00,994.00
662,-7808.00,5780.00,-11088.00,29.75,-1850.00,-325.00,625.00
663,-7588.00,6604.00,-11028.00,29.85,-1487.00,-304.00,790.00
664,-7484.00,6576.00,-10996.00,29.85,-712.00,241.00,58.00
665,-7524.00,6820.00,-10868.00,29.75,-750.00,330.00,38.00
666,-7456.00,6828.00,-10844.00,29.80,-661.00,170.00,-69.00
667,-7376.00,7000.00,-10912.00,29.85,-506.00,77.00,-41.00
668,-7320.00,6964.00,-11128.00,29.80,-424.00,46.00,-98.00
669,-7264.00,6872.00,-10908.00,29.85,-430.00,111.00,-246.00
670,-7564.00,6724.00,-11028.00,29.75,-1907.00,-360.00,615.00
671,-7188.00,6952.00,-10896.00,29.75,-495.00,-14.00,-58.00
672,-7364.00,7016.00,-10824.00,29.80,-662.00,84.00,-165.00
673,-7408.00,7176.00,-10768.00,29.75,-537.00,-61.00,-204.00
674,-7112.00,7116.00,-10860.00,29.85,-512.00,-213.00,-324.00
675,-7204.00,7316.00,-10832.00,29.75,-559.00,-237.00,-385.00
676,-7200.00,7336.00,-11124.00,29.80,-808.00,3.00,-305.00
677,-7056.00,7508.00,-11172.00,29.85,-1623.00,644.00,285.00
678,-6732.00,7828.00,-11164.00,29.85,-1384.00,934.00,776.00
679,-6504.00,7552.00,-10824.00,29.85,-1976.00,1503.00,1383.00
680,-6480.00,9260.00,-11472.00,29.75,-2138.00,961.00,3376.00
681,-5880.00,6796.00,-11280.00,29.85,-4270.00,1036.00,1677.00
682,-5660.00,8348.00,-10332.00,29.80,-1295.00,1740.00,644.00
683,-7404.00,8208.00,-10436.00,29.80,-2713.00,1175.00,-266.00
684,-5692.00,7928.00,-9824.00,29.85,-811.00,358.00,-240.00
685,-5824.00,8712.00,-10176.00,29.80,264.00,-125.00,-1281.00
686,-5804.00,8880.00,-10652.00,29.80,-110.00,17.00,-217.00
687,-5496.00,9132.00,-10740.00,29.75,-514.00,39.00,96.00
688,-5876.00,8972.00,-9760.00,29.80,-273.00,154.00,-44.00
689,-3836.00,9532.00,-11392.00,29.85,-144.00,-516.00,-2001.00
690,-5904.00,8516.00,-9956.00,29.80,-654.00,-376.00,-717.00
691,-5756.00,8812.00,-10460.00,29.80,-286.00,-446.00,-702.00
692,-5776.00,8596.00,-10468.00,29.80,-305.00,-180.00,-320.00
693,-5888.00,8988.00,-10724.00,29.80,120.00,-226.00,-454.00
694,-5928.00,8428.00,-10164.00,29.71,-389.00,-211.00,-250.00
695,-5996.00,8776.00,-10636.00,29.80,53.00,-240.00,-420.00
696,-5900.00,8576.00,-10416.00,29.75,-279.00,-230.00,-161.00
697,-5976.00,8532.00,-10440.00,29.94,-164.00,-197.00,-301.00
698,-5940.00,8832.00,-10492.00,29.75,-281.00,-153.00,-176.00
699,-5968.00,8628.00,-10412.00,29.85,-270.00,-221.00,-237.00
700,-5960.00,8612.00,-10508.00,29.85,-204.00,-188.00,-216.00
701,-6004.00,8772.00,-10592.00,29.89,-262.00,-195.00,-213.00
702,-6016.00,8804.00,-10704.00,29.71,-337.00,-224.00,-256.00
703,-6020.00,8592.00,-10712.00,29.71,-358.00,-197.00,-151.00
704,-5924.00,8664.00,-10440.00,29.89,-280.00,-139.00,-106.00
705,-6072.00,8548.00,-10680.00,29.80,-378.00,-139.00,-116.00
706,-6028.00,8656.00,-10580.00,29.80,-390.00,-148.00,-112.00
707,-5972.00,8732.00,-10732.00,29.89,-428.00,-190.00,-102.00
708,-5984.00,8448.00,-10460.00,29.85,-379.00,-291.00,-22.00
709,-5904.00,8700.00,-10568.00,29.80,-471.00,-279.00,45.00
710,-5972.00,8468.00,-10372.00,29.80,-366.00,-334.00,-109.00
711,-5900.00,8672.00,-10524.00,29.80,-545.00,-282.00,-49.00
712,-5912.00,8700.00,-10536.00,29.89,-301.00,-230.00,-192.00
713,-5900.00,8688.00,-10536.00,29.71,-259.00,-133.00,-329.00
714,-5964.00,8732.00,-10612.00,29.80,-150.00,-218.00,-281.00
715,-5880.00,8560.00,-10360.00,29.80,-236.00,-124.00,-331.00
716,-6064.00,8600.00,-10628.00,29.85,-63.00,-142.00,-346.00
717,-5988.00,8748.00,-10824.00,29.80,-108.00,-148.00,-460.00
718,-6216.00,8512.00,-10700.00,29.85,-293.00,-169.00,-253.00
719,-5908.00,8364.00,-10468.00,29.85,-268.00,-20.00,-248.00
720,-6004.00,8628.00,-10560.00,29.80,-59.00,-185.00,-369.00
721,-5912.00,8420.00,-10484.00,29.80,2.00,-291.00,-526.00
722,-6236.00,7880.00,-10428.00,29.85,587.00,-342.00,-877.00
723,-6196.00,8412.00,-10732.00,29.85,744.00,-404.00,-813.00
724,-6172.00,8248.00,-10684.00,29.75,944.00,-490.00,-716.00
725,-6228.00,8124.00,-10876.00,29.85,883.00,-513.00,-603.00
726,-6580.00,8096.00,-10456.00,29.89,592.00,-1068.00,575.00
727,-6192.00,7544.00,-11028.00,29.80,1145.00,-1207.00,-327.00
728,-9280.00,8044.00,-11948.00,29.85,1066.00,-1363.00,-1062.00
729,-7384.00,7628.00,-9628.00,29.80,-104.00,-417.00,70.00
730,-6920.00,7080.00,-11372.00,29.85,-161.00,-1346.00,-1035.00
731,-6712.00,7572.00,-11076.00,29.80,-1101.00,-1238.00,-162.00
732,-6780.00,7084.00,-11396.00,29.80,-129.00,-316.00,-350.00
733,-6888.00,7520.00,-10944.00,29.80,-91.00,-47.00,73.00
734,-6932.00,7240.00,-10872.00,29.85,-120.00,254.00,203.00
735,-7064.00,7332.00,-10596.00,29.85,-156.00,31.00,-110.00
736,-6932.00,7296.00,-10820.00,29.89,-223.00,-162.00,-184.00
737,-6740.00,7716.00,-11332.00,29.80,-1036.00,120.00,129.00
738,-6556.00,8160.00,-11644.00,29.80,-1408.00,713.00,714.00
739,-6408.00,8184.00,-11860.00,29.80,-2164.00,2108.00,1536.00
740,-7088.00,8188.00,-11652.00,29.89,-2330.00,1811.00,1483.00
741,-6536.00,9260.00,-11780.00,29.85,-4977.00,801.00,1834.00
742,-6748.00,8688.00,-9148.00,29.85,-8096.00,-565.00,281.00
743,-5604.00,7800.00,-8420.00,29.75,-4181.00,-1154.00,-859.00
744,-5260.00,8400.00,-6832.00,29.75,-602.00,1014.00,824.00
745,-5532.00,8656.00,-7840.00,29.85,1316.00,-554.00,-999.00
746,-5388.00,11276.00,-10220.00,29.80,-421.00,-1006.00,-885.00
747,-6248.00,9340.00,-9168.00,29.85,-779.00,-444.00,-825.00
748,-6372.00,10416.00,-10064.00,29.75,327.00,-204.00,-486.00
749,-6420.00,9892.00,-9356.00,29.75,-10.00,-224.00,-402.00
750,-5968.00,9492.00,-8996.00,29.85,513.00,-347.00,-705.00
751,-6212.00,9472.00,-8680.00,29.80,-73.00,-928.00,-83.00
752,-6248.00,9880.00,-9756.00,29.85,390.00,-1041.00,-940.00
753,-6456.00,10016.00,-9976.00,29.94,-136.00,-937.00,-599.00
754,-6308.00,9940.00,-9692.00,29.85,-478.00,-596.00,-129.00
755,-6272.00,9564.00,-9528.00,29.85,-173.00,-388.00,-475.00
756,-6500.00,9532.00,-9252.00,29.94,-149.00,-570.00,-652.00
757,-6504.00,9756.00,-9536.00,29.75,-387.00,-658.00,-432.00
758,-6688.00,9540.00,-9308.00,29.89,-63.00,-665.00,-843.00
759,-6548.00,9800.00,-9612.00,29.80,-591.00,-556.00,-282.00
760,-6728.00,9476.00,-9524.00,29.80,-193.00,-388.00,-510.00
761,-6788.00,9392.00,-9524.00,29.80,-285.00,-246.00,-428.00
762,-6812.00,9408.00,-9328.00,29.80,-190.00,-334.00,-507.00
763,-6860.00,9388.00,-9496.00,29.85,-218.00,-307.00,-458.00
764,-7280.00,10236.00,-9540.00,29.94,-773.00,-695.00,42.00
765,-6884.00,9396.00,-9444.00,29.85,-166.00,-317.00,-428.00
766,-6864.00,9560.00,-9644.00,29.89,-315.00,-319.00,-323.00
767,-6960.00,9448.00,-9472.00,29.89,-209.00,-301.00,-433.00
768,-6956.00,9352.00,-9464.00,29.80,-319.00,-221.00,-355.00
769,-6964.00,9316.00,-9360.00,29.71,-450.00,-238.00,-335.00
770,-6920.00,9384.00,-9328.00,29.89,-211.00,-223.00,-463.00
771,-6896.00,9420.00,-9264.00,29.89,-255.00,-246.00,-426.00
772,-7000.00,9408.00,-9516.00,29.85,-281.00,-279.00,-390.00
773,-7188.00,9264.00,-9312.00,29.94,-464.00,-286.00,-391.00
774,-7172.00,9200.00,-9384.00,29.85,-648.00,-232.00,-386.00
775,-7124.00,9360.00,-9172.00,29.85,-372.00,-2ø
Sample,aX,aY,az,Temp,gX,gY,gz
1,-7064.00,9644.00,-9392.00,29.94,-330.00,-186.00,-193.00
2,-7248.00,9444.00,-9132.00,29.80,-255.00,-239.00,-169.00
3,-7112.00,9372.00,-9144.00,29.85,-368.00,-188.00,-128.00
4,-7244.00,9560.00,-9052.00,29.89,-276.00,-239.00,-265.00
5,-7164.00,9164.00,-8964.00,30.04,-291.00,-254.00,-327.00
6,-7200.00,9456.00,-9256.00,29.89,-201.00,-244.00,-302.00
7,-7156.00,9412.00,-9184.00,29.75,-234.00,-208.00,-247.00
8,-7260.00,9320.00,-9132.00,29.80,-203.00,-269.00,-401.00
9,-7328.00