478,-224.00,11100.00,-10444.00,31.07,-526.00,-237.00,-232.00
Sample,aX,aY,az,Temp,gX,gY,gz
1,-2192.00,14832.00,-4180.00,30.93,-622.00,-611.00,-104.00
2,-2196.00,14888.00,-4072.00,31.07,-699.00,-521.00,-191.00
3,-2328.00,14972.00,-4048.00,31.07,-1013.00,-494.00,-142.00
4,-2024.00,14932.00,-3940.00,31.12,-1340.00,-431.00,110.00
5,-2128.00,15048.00,-3876.00,31.12,-1035.00,-107.00,-226.00
6,-2016.00,14900.00,-3648.00,31.02,-901.00,-12.00,-201.00
7,-2068.00,15132.00,-3680.00,31.02,-451.00,141.00,-404.00
8,-2284.00,14980.00,-3548.00,31.07,-287.00,125.00,-618.00
9,-2300.00,14972.00,-3628.00,31.07,-325.00,-74.00,-501.00
10,-2356.00,15060.00,-3636.00,31.21,-323.00,-139.00,-495.00
11,-2340.00,15088.00,-3596.00,31.07,-510.00,-24.00,-269.00
12,-2476.00,14988.00,-3840.00,31.07,-485.00,-3.00,-131.00
13,-2456.00,15096.00,-3732.00,31.02,-461.00,14.00,-221.00
14,-2460.00,15032.00,-3396.00,31.12,-85.00,-57.00,-420.00
15,-2528.00,17556.00,-3952.00,31.07,-91.00,14.00,-316.00
16,-2468.00,15104.00,-3680.00,31.07,7.00,-30.00,-662.00
17,-2620.00,14892.00,-3524.00,31.17,-326.00,199.00,-1012.00
18,-2692.00,14960.00,-4008.00,31.12,-335.00,19.00,-498.00
19,-2724.00,14996.00,-3760.00,30.98,-529.00,-112.00,-233.00
20,-2688.00,15000.00,-3712.00,31.12,-412.00,-109.00,-155.00
21,-2640.00,14872.00,-3776.00,31.12,-215.00,-174.00,-393.00
22,-2700.00,15000.00,-3704.00,31.02,-211.00,-221.00,-367.00
23,-2692.00,14932.00,-3860.00,31.07,-252.00,-222.00,-200.00
24,-2564.00,14888.00,-3984.00,31.07,-334.00,-138.00,-173.00
25,-2812.00,14908.00,-3844.00,31.02,-205.00,-296.00,-181.00
26,-2636.00,14852.00,-3928.00,31.21,-166.00,-397.00,-190.00
27,-2664.00,14888.00,-3868.00,31.21,-302.00,-232.00,3.00
28,-2684.00,14848.00,-3776.00,31.21,-276.00,-223.00,-34.00
29,-2692.00,14904.00,-3996.00,31.12,-119.00,-281.00,-194.00
30,-2760.00,14896.00,-3856.00,31.02,-5.00,-315.00,-280.00
31,-2696.00,14896.00,-4020.00,31.07,-181.00,-222.00,-208.00
32,-2836.00,14900.00,-4196.00,31.12,-158.00,-167.00,-402.00
33,-2700.00,14740.00,-4096.00,31.12,-153.00,-195.00,-394.00
34,-2640.00,14792.00,-4144.00,31.12,-202.00,-258.00,-118.00
35,-2780.00,14912.00,-4160.00,31.07,-228.00,-164.00,-65.00
36,-2828.00,14864.00,-4120.00,31.12,-97.00,-224.00,126.00
37,-2836.00,14796.00,-4256.00,31.12,-423.00,-158.00,1042.00
38,-2372.00,15000.00,-4308.00,31.12,-572.00,186.00,1609.00
39,-2140.00,14972.00,-4072.00,31.12,-416.00,362.00,1005.00
40,-2164.00,14860.00,-4028.00,31.12,4.00,145.00,890.00
41,-2168.00,14908.00,-4284.00,31.02,-23.00,-261.00,2147.00
42,-1208.00,14756.00,-3940.00,31.12,722.00,-407.00,1802.00
43,-1352.00,14940.00,-4392.00,31.12,1608.00,-810.00,1006.00
44,-644.00,16096.00,-4432.00,31.12,822.00,-1294.00,209.00
45,-1496.00,15008.00,-4880.00,31.12,987.00,-604.00,119.00
46,-1312.00,14928.00,-4788.00,31.07,-175.00,-307.00,806.00
47,-1072.00,14868.00,-4824.00,30.98,-666.00,-27.00,283.00
48,-1072.00,14824.00,-4728.00,31.02,-634.00,105.00,-75.00
49,-1124.00,14824.00,-4656.00,31.12,-529.00,88.00,30.00
50,-1172.00,14884.00,-4664.00,31.07,-763.00,90.00,-13.00
51,-1060.00,14872.00,-4412.00,30.93,-567.00,-35.00,-210.00
52,-1200.00,14948.00,-4720.00,31.12,-222.00,-166.00,-219.00
53,-1092.00,14948.00,-4584.00,31.21,-565.00,-134.00,-10.00
54,-1088.00,14940.00,-4496.00,31.12,-568.00,-111.00,-141.00
55,-1080.00,14848.00,-4480.00,31.12,-565.00,-181.00,-115.00
56,-1060.00,14812.00,-4568.00,31.07,-290.00,-272.00,-354.00
57,-1140.00,14884.00,-4460.00,31.17,-415.00,-272.00,-287.00
58,-1112.00,14940.00,-4548.00,31.07,-225.00,-199.00,-379.00
59,-1232.00,14796.00,-4500.00,31.12,-75.00,-230.00,-408.00
60,-1112.00,14988.00,-4520.00,31.07,-295.00,-290.00,-22.00
61,-1228.00,14880.00,-4452.00,31.17,-381.00,-254.00,-137.00
62,-1244.00,14928.00,-4456.00,31.02,-522.00,-269.00,138.00
63,-1132.00,14956.00,-4544.00,31.21,-566.00,-140.00,-31.00
64,-1136.00,14992.00,-4396.00,31.17,-944.00,42.00,337.00
65,-976.00,14976.00,-4420.00,31.17,-651.00,15.00,-76.00
66,-1056.00,14904.00,-4540.00,31.07,-527.00,-231.00,-178.00
67,-1100.00,14960.00,-4208.00,31.07,-400.00,-244.00,-284.00
68,-1076.00,14996.00,-4124.00,31.07,-404.00,-191.00,-344.00
69,-1040.00,14996.00,-4340.00,31.07,-308.00,-251.00,-420.00
70,-1272.00,15008.00,-4372.00,31.12,-300.00,-251.00,-414.00
71,-1200.00,14964.00,-4336.00,31.02,-329.00,-252.00,-360.00
72,-1268.00,14976.00,-4416.00,31.02,-367.00,-260.00,-241.00
73,-1288.00,15072.00,-4420.00,30.98,-206.00,-253.00,-314.00
74,-1276.00,14992.00,-4256.00,31.07,-265.00,-228.00,-336.00
75,-1304.00,15032.00,-4440.00,31.17,-340.00,-168.00,-271.00
76,-1316.00,14960.00,-4376.00,31.07,-267.00,-199.00,-250.00
77,-1328.00,15056.00,-4352.00,31.12,-257.00,-258.00,-209.00
78,-1420.00,14864.00,-4492.00,31.12,-208.00,-247.00,-211.00
79,-1384.00,15020.00,-4392.00,31.12,-291.00,-208.00,-226.00
80,-1428.00,14956.00,-4292.00,31.02,-322.00,-221.00,-148.00
81,-1468.00,14972.00,-4380.00,31.07,-344.00,-209.00,-220.00
82,-1188.00,14952.00,-4320.00,31.07,-295.00,-219.00,-143.00
83,-1456.00,14808.00,-4316.00,31.07,-341.00,-218.00,-158.00
84,-1352.00,14960.00,-4364.00,31.07,-395.00,-166.00,-198.00
85,-1348.00,14912.00,-4328.00,31.12,-383.00,-177.00,-263.00
86,-1508.00,15080.00,-4376.00,31.12,-427.00,-188.00,-87.00
87,-1368.00,14924.00,-4344.00,31.02,-328.00,-191.00,-333.00
88,-1424.00,14920.00,-4576.00,31.02,-347.00,-192.00,-207.00
89,-1472.00,15040.00,-4584.00,31.17,-415.00,-162.00,-136.00
90,-1348.00,14868.00,-4320.00,31.07,-561.00,-107.00,-4.00
91,-1452.00,14960.00,-4276.00,31.02,-517.00,-108.00,-73.00
92,-1396.00,14948.00,-4224.00,31.12,-421.00,-144.00,-167.00
93,-1368.00,15076.00,-4444.00,31.07,-517.00,-146.00,-54.00
94,-1312.00,14928.00,-4260.00,30.98,-548.00,-131.00,-88.00
95,-1228.00,15024.00,-4216.00,31.07,-597.00,-108.00,-56.00
96,-1296.00,14948.00,-4036.00,30.98,-272.00,-189.00,-410.00
97,-1444.00,15044.00,-4388.00,31.07,-151.00,-220.00,-388.00
98,-1248.00,15004.00,-4116.00,30.98,-267.00,-137.00,-263.00
99,-1448.00,14992.00,-4312.00,31.07,-152.00,-219.00,-332.00
100,-1524.00,14988.00,-4388.00,31.02,-236.00,-251.00,-272.00
101,-1312.00,15160.00,-4432.00,31.12,-341.00,-190.00,-222.00
102,-1404.00,14996.00,-4196.00,31.07,-236.00,-234.00,-246.00
103,-1492.00,14996.00,-4360.00,30.98,-161.00,-234.00,-245.00
104,-1572.00,14872.00,-4248.00,31.02,-246.00,-208.00,-333.00
105,-1452.00,14904.00,-4316.00,31.07,-289.00,-189.00,-187.00
106,-1536.00,14892.00,-4428.00,31.02,-362.00,-194.00,-179.00
107,-1396.00,14880.00,-4400.00,31.07,-274.00,-218.00,-129.00
108,-1568.00,14980.00,-4428.00,31.07,-232.00,-223.00,-170.00
109,-1512.00,14988.00,-4392.00,31.12,-249.00,-216.00,-251.00
110,-1520.00,14916.00,-4460.00,31.17,-319.00,-235.00,-230.00
111,-1416.00,15040.00,-4436.00,31.02,-186.00,-303.00,-326.00
112,-1436.00,15176.00,-4552.00,31.02,-199.00,-213.00,-110.00
113,-1516.00,14876.00,-4460.00,30.98,-496.00,-93.00,-86.00
114,-1528.00,14740.00,-4228.00,31.07,41.00,-328.00,-846.00
115,-1596.00,14764.00,-4636.00,31.02,557.00,-611.00,-820.00
116,-1940.00,14876.00,-4944.00,31.07,276.00,-696.00,-621.00
117,-1740.00,14856.00,-4640.00,31.17,-1018.00,-337.00,126.00
118,-1696.00,14768.00,-4504.00,31.07,-586.00,-272.00,-628.00
119,-2084.00,14616.00,-4340.00,31.12,540.00,-400.00,-1659.00
120,-2224.00,14756.00,-4856.00,31.07,80.00,-511.00,-1014.00
121,-2356.00,14708.00,-4704.00,31.07,-844.00,-167.00,-527.00
122,-2300.00,14584.00,-4616.00,31.07,-694.00,-54.00,-473.00
123,-2512.00,14728.00,-4568.00,31.12,-1101.00,-254.00,204.00
124,-1996.00,14932.00,-4476.00,30.93,-1491.00,-106.00,819.00
125,-1940.00,14812.00,-3928.00,30.98,-1103.00,39.00,563.00
126,-2320.00,15380.00,-4368.00,31.07,-480.00,-592.00,713.00
127,4.00,14804.00,-4068.00,31.07,-626.00,-671.00,-295.00
128,-2056.00,14692.00,-4120.00,31.02,177.00,-140.00,-1261.00
129,-2156.00,14924.00,-4296.00,31.07,-475.00,-43.00,-378.00
130,-2356.00,14884.00,-4164.00,31.07,-412.00,412.00,-1012.00
131,-2400.00,15016.00,-4332.00,31.12,-1103.00,454.00,-427.00
132,-2160.00,14820.00,-3920.00,31.07,-880.00,69.00,-171.00
133,-2380.00,15056.00,-4044.00,31.07,-530.00,-432.00,-265.00
134,-2136.00,15080.00,-4032.00,31.12,-749.00,-380.00,378.00
135,-2236.00,14948.00,-3976.00,31.02,-615.00,-152.00,-176.00
136,-2124.00,15008.00,-4128.00,31.07,-970.00,38.00,282.00
137,-2060.00,15148.00,-3800.00,31.02,-1065.00,128.00,243.00
138,-2084.00,14968.00,-3648.00,31.07,-844.00,-63.00,95.00
139,-2068.00,15004.00,-3652.00,31.12,-282.00,-103.00,-165.00
140,-1952.00,15084.00,-3728.00,31.07,-296.00,-237.00,-145.00
141,-2144.00,15128.00,-3640.00,31.17,41.00,-338.00,-365.00
142,-2128.00,15160.00,-3708.00,31.07,-38.00,-372.00,-251.00
143,-1976.00,15060.00,-3768.00,31.07,-159.00,-377.00,-261.00
144,-2140.00,15164.00,-3916.00,31.02,-164.00,-226.00,-445.00
145,-2072.00,15056.00,-3788.00,31.17,-202.00,-220.00,-277.00
146,-2260.00,15056.00,-3780.00,31.07,-190.00,-260.00,-17.00
147,-2176.00,15016.00,-3780.00,31.02,-110.00,-167.00,-215.00
148,-2460.00,14972.00,-3856.00,31.02,40.00,-237.00,-253.00
149,-2272.00,14924.00,-4084.00,31.02,6.00,-270.00,-49.00
150,-2196.00,14932.00,-4140.00,31.07,-113.00,-162.00,-255.00
151,-2200.00,14952.00,-4024.00,31.02,-314.00,-233.00,-130.00
152,-2236.00,14916.00,-4048.00,31.02,-514.00,-156.00,162.00
153,-1968.00,15016.00,-4072.00,31.07,-628.00,75.00,175.00
154,-2144.00,14940.00,-4028.00,31.02,-563.00,79.00,-5.00
155,-2276.00,15024.00,-3896.00,31.07,-56.00,-156.00,-571.00
156,-2244.00,14960.00,-3876.00,30.98,-23.00,-462.00,-430.00
157,-2224.00,14928.00,-4128.00,31.02,275.00,-472.00,-485.00
158,-2172.00,14664.00,-4116.00,31.02,625.00,-431.00,-900.00
159,-2464.00,14872.00,-4308.00,31.02,70.00,-470.00,-385.00
160,-2368.00,14976.00,-4184.00,30.93,-369.00,-45.00,-236.00
161,-2488.00,14836.00,-4284.00,31.02,-643.00,98.00,-346.00
162,-2536.00,14812.00,-4320.00,31.02,-499.00,-7.00,-260.00
163,-2456.00,14864.00,-4192.00,31.02,-472.00,-223.00,123.00
164,-2240.00,14852.00,-4140.00,31.02,-418.00,124.00,-478.00
165,-2640.00,15092.00,-4396.00,31.07,-679.00,-80.00,749.00
166,-2168.00,14980.00,-4124.00,31.21,-689.00,294.00,644.00
167,-1960.00,14828.00,-3900.00,31.12,-902.00,43.00,802.00
168,-2196.00,15092.00,-4104.00,31.02,159.00,-503.00,533.00
169,-1812.00,14932.00,-4068.00,31.12,21.00,-664.00,539.00
170,-2180.00,14980.00,-4280.00,30.98,214.00,-712.00,436.00
171,-1776.00,14820.00,-4144.00,31.07,-1.00,-681.00,751.00
172,-1680.00,15072.00,-4224.00,31.02,-717.00,-18.00,398.00
173,-1632.00,15200.00,-4204.00,31.12,-391.00,175.00,-310.00
174,-1804.00,15272.00,-4248.00,30.98,-1100.00,299.00,97.00
175,-1728.00,14824.00,-4040.00,31.07,-1657.00,386.00,-139.00
176,-1632.00,15000.00,-3768.00,31.07,-1168.00,269.00,-638.00
177,-1732.00,15212.00,-3804.00,31.12,-599.00,-3.00,-790.00
178,-1968.00,15160.00,-3796.00,31.02,-1135.00,-58.00,429.00
179,-1432.00,15104.00,-3412.00,31.12,-1222.00,-78.00,306.00
180,-1780.00,15200.00,-3580.00,31.02,-407.00,-340.00,-12.00
181,-1464.00,15232.00,-3548.00,30.98,-314.00,-483.00,-217.00
182,-1548.00,15200.00,-3588.00,31.07,-137.00,-191.00,-289.00
183,-1784.00,15156.00,-3592.00,31.02,92.00,-52.00,-688.00
184,-1648.00,15104.00,-3644.00,31.02,207.00,-199.00,-1190.00
185,-2060.00,15176.00,-3824.00,31.02,220.00,-297.00,-614.00
186,-2048.00,14952.00,-3632.00,31.07,-293.00,-58.00,-158.00
187,-1880.00,15092.00,-3824.00,31.07,-449.00,-37.00,-221.00
188,-1848.00,15192.00,-3640.00,31.07,256.00,-293.00,-404.00
189,-1952.00,14996.00,-3960.00,30.98,342.00,-491.00,-387.00
190,-2048.00,15056.00,-4084.00,30.98,120.00,-376.00,-184.00
191,-2092.00,14948.00,-4096.00,31.07,-121.00,-198.00,-224.00
192,-2004.00,15024.00,-4008.00,31.12,-355.00,-151.00,264.00
193,-1964.00,15040.00,-4184.00,31.02,-182.00,-232.00,-48.00
194,-2008.00,15152.00,-4128.00,31.17,-1.00,-330.00,-71.00
195,-1972.00,14848.00,-4028.00,31.02,-95.00,-327.00,-39.00
196,-2068.00,15004.00,-4192.00,31.02,-129.00,-320.00,-159.00
197,-1848.00,14988.00,-4208.00,30.98,-207.00,-239.00,-260.00
198,-2128.00,14892.00,-4212.00,31.07,-303.00,-259.00,-287.00
199,-1840.00,14864.00,-4092.00,31.07,-50.00,-261.00,-495.00
200,-2112.00,14892.00,-4016.00,31.07,-251.00,-195.00,-405.00
201,-2108.00,14872.00,-4132.00,31.02,-214.00,-158.00,-420.00
202,-2108.00,14992.00,-4196.00,31.07,-206.00,-316.00,-188.00
203,-2020.00,14836.0.39.00,-12.00
212,-2128.00,14848.00,-4320.00,31.02,-223,-287.00,-187.00,-235.00
211,-2040.00,14944.00,-4240.00,31.02,-310.00,-139.00,-12.00
212,-2128.00,14848.00,-4320.00,31.02,-223.-287.00,-187.00,-235.00
211,-2040.00,14944.00,-4240.00,31.02,-310.00,-139.00,-12.00
212,-2128.00,14848.00,-4320.00,31.02,-223.00,-201.00,-64.00
213,-2124.00,14832.00,-4276.00,31.12,15.00,-257.00,-422.00
214,-2068.00,14880.00,-4492.00,31.02,-236.00,-192.00,-69.00
215,-2032.00,14852.00,-4284.00,31.12,-606.00,18.00,-232.00
216,-2292.00,14836.00,-4268.00,31.12,-326.00,-53.00,-216.00
217,-2072.00,14788.00,-4368.00,31.02,-600.00,-8.00,76.00
218,-2020.00,14856.00,-4296.00,31.07,-632.00,121.00,23.00
219,-2084.00,14996.00,-4236.00,30.98,-975.00,314.00,148.00
220,-2112.00,15000.00,-4148.00,31.02,-1192.00,152.00,258.00
221,-1976.00,14912.00,-3856.00,31.12,-616.00,-92.00,171.00
222,-1756.00,14844.00,-4036.00,30.93,-136.00,-226.00,-67.00
223,-1924.00,15008.00,-4260.00,31.02,607.00,-316.00,-457.00
224,-1888.00,14836.00,-4232.00,31.02,201.00,-194.00,-417.00
225,-2128.00,14840.00,-4212.00,30.93,-112.00,-196.00,-226.00
226,-1836.00,14820.00,-4208.00,30.88,-383.00,-235.00,-179.00
227,-1988.00,14904.00,-4376.00,31.07,-293.00,-323.00,-179.00
228,-2000.00,14984.00,-4408.00,31.12,-168.00,-331.00,-349.00
229,-1956.00,14844.00,-4300.00,31.02,-332.00,-223.00,-560.00
230,-1988.00,14696.00,-4072.00,30.98,-214.00,-356.00,-828.00
231,-2416.00,14936.00,-4464.00,31.07,2.00,-403.00,-552.00
232,-2428.00,14844.00,-4316.00,31.02,-595.00,-418.00,-164.00
233,-1992.00,14660.00,-4396.00,30.98,-746.00,-318.00,-201.00
234,-2644.00,14884.00,-4304.00,30.98,-375.00,-706.00,-81.00
235,-2020.00,14732.00,-3956.00,30.98,-545.00,-498.00,250.00
236,-2372.00,14588.00,-4132.00,31.12,-154.00,-48.00,-743.00
237,-2284.00,14888.00,-4200.00,31.12,-403.00,-399.00,97.00
238,-2404.00,15036.00,-4240.00,30.98,98.00,-222.00,-638.00
239,-2284.00,14804.00,-4216.00,31.07,-384.00,-154.00,-157.00
240,-2512.00,14816.00,-4428.00,31.07,74.00,-132.00,-630.00
241,-2488.00,14700.00,-4428.00,31.07,-12.00,-304.00,-125.00
242,-2400.00,14800.00,-4364.00,30.93,-121.00,-362.00,47.00
243,-2356.00,14752.00,-4440.00,31.07,-230.00,-240.00,-329.00
244,-2412.00,14768.00,-4488.00,31.02,-13.00,-218.00,-354.00
245,-2484.00,14752.00,-4724.00,31.02,140.00,-331.00,-137.00
246,-2476.00,14760.00,-4612.00,31.12,-360.00,-120.00,-290.00
247,-2520.00,14704.00,-4520.00,31.07,-297.00,-5.00,-475.00
248,-2556.00,14712.00,-4580.00,31.07,-425.00,33.00,-412.00
249,-2536.00,14688.00,-4564.00,31.12,-728.00,36.00,-362.00
250,-2600.00,14664.00,-4428.00,31.02,-1021.00,38.00,-181.00
251,-2604.00,14708.00,-4348.00,31.02,-991.00,-18.00,68.00
252,-2268.00,14796.00,-4424.00,31.07,-804.00,-148.00,253.00
253,-2484.00,14864.00,-4208.00,31.07,-266.00,-258.00,-612.00
254,-2540.00,14816.00,-4392.00,31.02,-175.00,-156.00,-350.00
255,-2468.00,14268.00,-4388.00,30.98,-881.00,250.0?
Sample,aX,aY,az,Temp,gX,gY,gz
1,-2996.00,14684.00,-4152.00,31.07,-33.00,-58.00,-457.00
2,-2660.00,14924.00,-4296.00,31.07,-1165.00,-78.00,-123.00
3,-3216.00,14584.00,-3908.00,31.07,-339.00,-149.00,-508.00
4,-2996.00,14744.00,-4020.00,31.07,-176.00,-385.00,137.00
5,-2800.00,14788.00,-4124.00,31.02,89.00,-250.00,-113.00
6,-2924.00,14704.00,-4292.00,31.07,-218.00,-156.00,33.00
7,-2796.00,14440.00,-4016.00,31.02,-59.00,-225.00,182.00
8,-2728.00,14864.00,-4160.00,30.98,-238.00,-128.00,-70.00
9,-2660.00,14840.00,-4220.00,31.07,276.00,-203.00,-249.00
10,-2808.00,14792.00,-4284.00,31.02,-340.00,-293.00,26.00
11,-2768.00,14780.00,-4252.00,30.98,-136.00,-164.00,-112.00
12,-2876.00,14624.00,-4312.00,31.02,-392.00,-172.00,-58.00
13,-2800.00,14728.00,-4228.00,31.07,-422.00,-164.00,-53.00
14,-2688.00,14740.00,-4380.00,30.98,-357.00,-200.00,-66.00
15,-2804.00,14748.00,-4288.00,30.98,-204.00,-205.00,-165.00
16,-2752.00,14688.00,-4280.00,31.07,-194.00,-205.00,-239.00
17,-2808.00,14744.00,-4412.00,30.98,-251.00,-200.00,-196.00
18,-2824.00,14616.00,-4328.00,31.07,-242.00,-217.00,-311.00
19,-2768.00,14864.00,-4304.00,31.12,-151.00,-325.00,-109.00
20,-2852.00,14664.00,-4328.00,31.02,-62.00,-197.00,-266.00
21,-2904.00,14560.00,-4496.00,31.02,-158.00,-175.00,-194.00
22,-2928.00,14536.00,-4300.00,31.02,-81.00,-241.00,-269.00
23,-2944.00,14520.00,-4532.00,31.02,-147.00,-259.00,-218.00
24,-2920.00,14596.00,-4596.00,31.02,-121.00,-211.00,-141.00
25,-3040.00,14604.00,-4456.00,31.12,-304.00,-134.00,-176.00
26,-3020.00,14604.00,-4524.00,31.02,-244.00,-176.00,-105.00
27,-2832.00,14664.00,-4484.00,31.12,-258.00,-201.00,-77.00
28,-2996.00,14496.00,-4448.00,31.02,147.00,-237.00,-239.00
29,-2804.00,14788.00,-4820.00,31.02,172.00,-278.00,-60.00
30,-3068.00,14528.00,-4640.00,30.88,148.00,-248.00,-29.00
31,-2964.00,14508.00,-4636.00,31.07,83.00,-280.00,-7.00
32,-3004.00,14552.00,-4748.00,31.07,-42.00,-200.00,-78.00
33,-2988.00,14576.00,-4776.00,30.93,-150.00,-244.00,131.00
34,-2872.00,14512.00,-4864.00,31.02,115.00,-356.00,-132.00
35,-3252.00,14556.00,-4868.00,31.12,-933.00,-719.00,-261.00
36,-2812.00,14092.00,-4040.00,31.02,-915.00,-146.00,58.00
37,-2976.00,14668.00,-4904.00,31.02,216.00,-209.00,-384.00
38,-2920.00,14536.00,-4540.00,30.98,-1062.00,70.00,-7.00
39,-3004.00,14560.00,-4660.00,31.02,-507.00,59.00,-282.00
40,-3012.00,14628.00,-4616.00,31.12,-420.00,-196.00,-73.00
41,-3000.00,14528.00,-4744.00,31.02,-330.00,-130.00,-92.00
42,-2868.00,14516.00,-4592.00,31.02,-466.00,-134.00,-98.00
43,-2932.00,14636.00,-4516.00,31.07,-402.00,-235.00,-124.00
44,-2912.00,14552.00,-4548.00,31.02,-217.00,-269.00,-66.00
45,-2848.00,14556.00,-4676.00,31.02,-367.00,-169.00,-80.00
46,-2900.00,14552.00,-4600.00,31.02,-485.00,-88.00,-61.00
47,-2832.00,14676.00,-4616.00,30.98,-414.00,-112.00,-184.00
48,-2964.00,14616.00,-4832.00,30.98,-238.00,-152.00,-243.00
49,-2956.00,14660.00,-4596.00,31.02,-334.00,-158.00,-164.00
50,-2860.00,14488.00,-4884.00,31.02,-404.00,-147.00,-105.00
51,-2844.00,14584.00,-4732.00,31.07,-366.00,-200.00,-153.00
52,-2836.00,14564.00,-4660.00,30.98,-460.00,-129.00,-80.00
53,-2872.00,14484.00,-4680.00,31.07,-424.00,-155.00,-101.00
54,-2876.00,14652.00,-4632.00,31.07,-378.00,-186.00,-146.00
55,-2876.00,14580.00,-4532.00,31.07,-247.00,-218.00,-188.00
56,-2840.00,14596.00,-4664.00,31.02,-215.00,-231.00,-218.00
57,-2896.00,14616.00,-4720.00,31.02,-209.00,-198.00,-183.00
58,-2924.00,14568.00,-4712.00,31.02,-263.00,-171.00,-187.00
59,-3012.00,14504.00,-4744.00,31.07,-157.00,-206.00,-246.00
60,-2880.00,14504.00,-4732.00,31.07,-294.00,-291.00,-163.00
61,-2924.00,14560.00,-4676.00,31.07,-230.00,-255.00,-171.00
62,-2924.00,14544.00,-4684.00,31.07,-397.00,-176.00,-175.00
63,-2924.00,14432.00,-4776.00,31.07,-342.00,-158.00,-199.00
64,-3008.00,14592.00,-4756.00,30.98,-344.00,-226.00,-182.00
65,-2864.00,14464.00,-4636.00,31.12,-156.00,-252.00,-192.00
66,-2960.00,14588.00,-4776.00,30.98,-240.00,-245.00,-106.00
67,-2956.00,14540.00,-4848.00,31.07,-206.00,-218.00,-190.00
68,-2952.00,14432.00,-4620.00,30.98,-329.00,-179.00,-156.00
69,-2924.00,14512.00,-4644.00,31.12,-332.00,-169.00,-87.00
70,-2924.00,14480.00,-4708.00,31.02,-338.00,-221.00,-122.00
71,-2836.00,14404.00,-4728.00,31.12,-301.00,-177.00,-149.00
72,-2952.00,14460.00,-4680.00,31.02,-380.00,-187.00,-154.00
73,-3012.00,14528.00,-4792.00,31.02,-246.00,-206.00,-131.00
74,-2988.00,14444.00,-4848.00,30.98,-239.00,-214.00,-237.00
75,-3060.00,14404.00,-4680.00,31.07,-224.00,-278.00,-91.00
76,-3008.00,14560.00,-4880.00,31.07,-213.00,-194.00,-52.00
77,-2908.00,14496.00,-4816.00,31.07,-437.00,-114.00,-93.00
78,-3004.00,14508.00,-4932.00,31.07,-384.00,-200.00,11.00
79,-2924.00,14552.00,-4908.00,31.02,-298.00,-197.00,-74.00
80,-2912.00,14516.00,-4892.00,31.02,-354.00,-189.00,56.00
81,-2936.00,14544.00,-4828.00,31.02,-190.00,-221.00,-71.00
82,-2964.00,14460.00,-4812.00,31.02,-237.00,-237.00,-55.00
83,-2956.00,14480.00,-4812.00,31.02,-376.00,-183.00,35.00
84,-2912.00,14476.00,-4744.00,30.98,-305.00,-141.00,-70.00
85,-2784.00,14548.00,-4844.00,31.07,-301.00,-185.00,31.00
86,-2876.00,14392.00,-4892.00,31.07,-178.00,-347.00,-67.00
87,-2780.00,14528.00,-4908.00,31.12,-374.00,-285.00,-26.00
88,-2800.00,14560.00,-4868.00,31.02,-579.00,-120.00,-87.00
89,-2844.00,14384.00,-4800.00,31.02,-549.00,-151.00,-239.00
90,-2728.00,14556.00,-4744.00,31.12,-692.00,-191.00,-151.00
91,-2900.00,14660.00,-4788.00,31.07,-486.00,-209.00,-217.00
92,-2780.00,14512.00,-4708.00,31.07,-532.00,-196.00,-109.00
93,-2792.00,14448.00,-4688.00,31.07,-502.00,-145.00,-132.00
94,-2768.00,14628.00,-4532.00,30.98,-497.00,-121.00,-92.00
95,-2772.00,14588.00,-4580.00,30.98,-468.00,-157.00,-152.00
96,-2820.00,14612.00,-4700.00,30.88,-445.00,-193.00,-124.00
97,-2864.00,14540.00,-4752.00,30.98,-376.00,-241.00,-159.00
98,-2712.00,14628.00,-4568.00,31.02,-257.00,-232.00,-166.00
99,-2812.00,14592.00,-4732.00,31.02,-238.00,-248.00,-196.00
100,-2900.00,14544.00,-4612.00,31.02,-257.00,-237.00,-231.00
101,-2832.00,14624.00,-4580.00,31.07,-280.00,-243.00,-253.00
102,-2792.00,14600.00,-4736.00,31.02,-285.00,-221.00,-208.00
103,-2792.00,14588.00,-4736.00,31.02,-260.00,-208.00,-154.00
104,-2880.00,14580.00,-4752.00,30.98,-285.00,-203.00,-180.00
105,-2968.00,14588.00,-4808.00,31.02,-246.00,-248.00,-162.00
106,-2868.00,14580.00,-4636.00,31.02,-135.00,-265.00,-96.00
107,-2852.00,14580.00,-4820.00,31.02,-310.00,-244.00,-103.00
108,-2924.00,14468.00,-4672.00,31.07,-328.00,-205.00,-68.00
109,-2900.00,14516.00,-4788.00,30.98,-296.00,-172.00,-160.00
110,-2820.00,14504.00,-4848.00,30.98,-351.00,-199.00,-136.00
111,-2932.00,14496.00,-4888.00,31.07,-297.00,-194.00,-145.00
112,-2916.00,14484.00,-4852.00,30.93,-265.00,-235.00,-143.00
113,-2816.00,14516.00,-4828.00,30.98,-315.00,-181.00,-143.00
114,-2836.00,14500.00,-4624.00,31.07,-265.00,-221.00,-153.00
115,-2836.00,14452.00,-4828.00,31.02,-247.00,-258.00,-129.00
116,-2908.00,14508.00,-4708.00,31.02,-278.00,-241.00,-88.00
117,-2760.00,14540.00,-4972.00,31.02,-380.00,-175.00,-84.00
118,-2912.00,14488.00,-4800.00,30.98,-373.00,-165.00,-100.00
119,-2900.00,14428.00,-4816.00,30.98,-290.00,-182.00,-187.00
120,-2764.00,14520.00,-4764.00,31.12,-357.00,-145.00,-162.00
121,-2816.00,14464.00,-4772.00,31.07,-423.00,-218.00,-110.00
122,-2912.00,14700.00,-4668.00,30.98,-338.00,-191.00,-173.00
123,-2864.00,14496.00,-4888.00,31.12,-436.00,-138.00,-167.00
124,-2884.00,14500.00,-4840.00,31.07,-447.00,-215.00,-164.00
125,-2880.00,14540.00,-4668.00,30.98,-444.00,-172.00,-151.00
126,-2780.00,14512.00,-4752.00,31.07,-433.00,-165.00,-110.00
127,-2748.00,14532.00,-4832.00,31.02,-580.00,-91.00,-28.00
128,-2844.00,14584.00,-4668.00,31.02,-495.00,-87.00,-116.00
129,-2924.00,14552.00,-4664.00,31.02,-517.00,-145.00,-62.00
130,-2796.00,14544.00,-4608.00,31.02,-468.00,-162.00,-104.00
131,-2760.00,14616.00,-4636.00,30.98,-429.00,-177.00,-106.00
132,-2720.00,14704.00,-4720.00,31.02,-406.00,-165.00,-92.00
133,-2684.00,14588.00,-4672.00,31.02,-397.00,-169.00,-79.00
134,-2688.00,14636.00,-4724.00,31.02,-398.00,-195.00,-118.00
135,-2780.00,14568.00,-4600.00,30.98,-379.00,-226.00,-130.00
136,-2824.00,14476.00,-4616.00,31.07,-318.00,-262.00,-162.00
137,-2716.00,14572.00,-4576.00,30.98,-211.00,-260.00,-215.00
138,-2812.00,14524.00,-4564.00,31.02,-186.00,-276.00,-180.00
139,-2800.00,14480.00,-4728.00,31.02,-255.00,-191.00,-181.00
140,-2660.00,14588.00,-4764.00,31.07,-265.00,-209.00,-241.00
141,-2804.00,14596.00,-4732.00,30.98,-279.00,-256.00,-152.00
142,-2776.00,14496.00,-4652.00,31.02,-270.00,-203.00,-184.00
143,-2888.00,14576.00,-4768.00,31.02,-283.00,-205.00,-186.00
144,-2772.00,14468.00,-4808.00,30.88,-250.00,-260.00,-183.00
145,-2872.00,14528.00,-4656.00,30.98,-187.00,-240.00,-164.00
146,-2832.00,14460.00,-4648.00,30.98,-233.00,-217.00,-156.00
147,-2820.00,14548.00,-4996.00,31.12,-265.00,-183.00,-197.00
148,-2876.00,14516.00,-4840.00,31.07,-275.00,-231.00,-149.00
149,-2824.00,14676.00,-4688.00,31.02,-298.00,-179.00,-196.00
150,-2836.00,14680.00,-4668.00,30.93,-76.00,-314.00,-47.00
151,-2868.00,14904.00,-4996.00,31.02,-1357.00,58.00,385.00
152,-2604.00,14460.00,-4484.00,31.02,-1844.00,1007.00,-1.00
153,-3052.00,15224.00,-4508.00,31.02,-1962.00,1300.00,-59.00
154,-2828.00,16072.00,-5176.00,30.98,-4573.00,1280.00,687.00
155,-3748.00,18560.00,-4392.00,30.93,-9399.00,3025.00,6061.00
156,-956.00,16836.00,-2248.00,30.98,-15840.00,6334.00,10653.00
157,-144.00,19312.00,256.00,31.02,-7843.00,3373.00,8363.00
158,3460.00,15156.00,-324.00,31.02,-4591.00,5435.00,12161.00
159,5488.00,16724.00,1564.00,31.07,-3874.00,5710.00,9627.00
160,8008.00,13024.00,3560.00,30.98,1539.00,1643.00,12057.00
161,11292.00,15504.00,1788.00,31.07,16434.00,4667.00,13644.00
162,10184.00,14096.00,-1888.00,30.98,23538.00,9516.00,16123.00
163,7560.00,6976.00,-6428.00,30.93,14404.00,6418.00,14956.00
164,10360.00,8640.00,-5636.00,30.98,6679.00,2810.00,8587.00
165,12052.00,12892.00,-2208.00,30.98,1929.00,3497.00,1833.00
166,13484.00,9964.00,-1960.00,30.93,3342.00,3163.00,1817.00
167,13732.00,8476.00,-1484.00,31.02,-703.00,3408.00,1615.00
168,13716.00,7664.00,-2584.00,31.07,2950.00,3617.00,1530.00
169,14044.00,5964.00,-2152.00,30.98,6561.00,2103.00,1639.00
170,14260.00,5584.00,-820.00,31.07,9297.00,755.00,920.00
171,14660.00,7692.00,-2580.00,31.02,9470.00,875.00,1729.00
172,15460.00,8364.00,-5740.00,31.02,-204.00,-3685.00,1447.00
173,15000.00,8252.00,-6016.00,31.07,-3549.00,-1539.00,2051.00
174,15272.00,6100.00,-6816.00,30.93,-1842.00,-534.00,1057.00
175,14320.00,3224.00,-3784.00,30.98,-5820.00,-2183.00,1132.00
176,14828.00,5876.00,-2816.00,31.02,-3703.00,-2188.00,2701.00
177,13448.00,7764.00,-2232.00,30.98,-4394.00,-4645.00,2116.00
178,16068.00,5800.00,-4672.00,31.02,-3226.00,-3315.00,2539.00
179,16044.00,7368.00,-5300.00,30.98,-7886.00,1503.00,3318.00
180,14028.00,4316.00,-4996.00,31.02,-3627.00,1995.00,3245.00
181,15056.00,3428.00,-4548.00,31.07,763.00,742.00,2618.00
182,15436.00,2456.00,-3020.00,31.02,-1979.00,860.00,99.00
183,15436.00,4552.00,-3372.00,31.07,2079.00,1301.00,87.00
184,15208.00,4240.00,-2764.00,30.88,-1414.00,870.00,-1279.00
185,15068.00,5276.00,-3488.00,31.02,-2.00,2633.00,-1278.00
186,15904.00,5360.00,-4304.00,31.07,3205.00,1905.00,-1282.00
187,14852.00,4364.00,-2224.00,31.02,2896.00,1520.00,-2956.00
188,15992.00,4016.00,-916.00,30.98,5229.00,1476.00,-5336.00
189,13928.00,6524.00,-3172.00,30.98,4122.00,2016.00,-3319.00
190,16620.00,8976.00,-2120.00,31.02,1172.00,2020.00,-1269.00
191,14176.00,6132.00,-1836.00,30.98,-371.00,1972.00,-1099.00
192,15608.00,4804.00,-1928.00,30.98,2562.00,1551.00,-1820.00
193,15488.00,5604.00,-2596.00,31.02,1532.00,113.00,-728.00
194,15316.00,7300.00,-1784.00,31.02,-3279.00,262.00,-45.00
195,15260.00,6804.00,-1528.00,30.93,-1934.00,-460.00,771.00
196,15296.00,6936.00,-2332.00,31.02,-2289.00,-1493.00,489.00
197,14676.00,5664.00,-2448.00,30.98,-4478.00,-3666.00,-134.00
198,16296.00,6064.00,-1580.00,31.02,-8099.00,-3987.00,1082.00
199,14320.00,6744.00,-1136.00,31.07,-7580.00,-3989.00,-35.00
200,16804.00,5640.00,-2492.00,31.02,-4159.00,-2256.00,269.00
201,14144.00,7308.00,-2752.00,30.98,-5619.00,-668.00,1190.00
202,15036.00,6440.00,-2404.00,30.98,-2246.00,220.00,647.00
203,15440.00,5116.00,-3284.00,30.98,4734.00,832.00,894.00
204,14864.00,6192.00,-2696.00,30.98,2756.00,2784.00,144.00
205,15208.00,6796.00,-1716.00,31.07,1032.00,2875.00,-1617.00
206,14752.00,5840.00,-944.00,30.98,7029.00,2722.00,-2062.00
207,16240.00,9420.00,-324.00,31.02,5313.00,3928.00,-398.00
208,13876.00,7388.00,-332.00,31.02,5017.00,2889.00,-659.00
209,16596.00,5264.00,-1480.00,30.88,3888.00,1545.00,-1769.00
210,14936.00,6512.00,-1424.00,31.12,1517.00,937.00,-1308.00
211,15328.00,6504.00,-976.00,30.93,1206.00,-43.00,-1424.00
212,15644.00,7412.00,-988.00,31.02,2804.00,544.00,-175.00
213,14868.00,7020.00,-1352.00,30.98,560.00,19.00,206.00
214,15184.00,5912.00,-1348.00,31.02,-991.00,-592.00,-236.00
215,15140.00,6108.00,-1688.00,31.02,-1258.00,-1283.00,-219.00
216,15196.00,6804.00,-1768.00,31.07,-3501.00,-1941.00,-536.00
217,15032.00,7280.00,-1972.00,30.93,-6184.00,-4413.00,-820.00
218,15656.00,6916.00,-948.00,30.98,-6374.00,-4601.00,1263.00
219,13776.00,9436.00,-856.00,31.07,-8395.00,-3036.00,2954.00
220,14988.00,6848.00,-2132.00,30.93,-2071.00,-6347.00,1154.00
221,16368.00,6300.00,-1944.00,30.98,-4858.00,-3061.00,2427.00
222,15236.00,8156.00,-3412.00,30.98,-3077.00,317.00,3492.00
223,14508.00,4416.00,-2916.00,30.88,-1285.00,-373.00,1477.00
224,14744.00,4220.00,-3308.00,30.98,2377.00,694.00,1956.00
225,15740.00,6852.00,-2916.00,31.07,431.00,530.00,307.00
226,15148.00,5624.00,-2356.00,31.02,2360.00,1074.00,-482.00
227,15536.00,5784.00,-3032.00,31.02,-145.00,1412.00,-1193.00
228,15460.00,5132.00,-3356.00,30.98,1447.00,2242.00,-1841.00
229,15160.00,5276.00,-2332.00,31.02,3594.00,2613.00,-2394.00
230,16888.00,8356.00,-876.00,30.93,4650.00,3274.00,20.00
231,12412.00,7448.00,196.00,30.98,2758.00,1658.00,-1143.00
232,15816.00,5988.00,-1484.00,31.07,2561.00,238.00,-3186.00
233,16948.00,6832.00,-2548.00,30.98,-1208.00,-196.00,-2601.00
234,15428.00,7096.00,168.00,30.98,1190.00,2490.00,-851.00
235,14700.00,7932.00,-612.00,31.02,3069.00,2539.00,-17.00
236,15208.00,6692.00,-1208.00,30.93,1973.00,801.00,-251.00
237,15320.00,6060.00,-1448.00,30.93,-158.00,-221.00,-983.00
238,14944.00,5852.00,-1616.00,30.93,-2206.00,-1723.00,-728.00
239,15288.00,6712.00,-1412.00,30.98,-3619.00,-2268.00,-232.00
240,14684.00,7136.00,-1632.00,31.02,-5906.00,-2983.00,-227.00
241,16720.00,6584.00,68.00,30.98,-6357.00,-3878.00,2203.00
242,14496.00,7164.00,144.00,30.98,-3806.00,-3124.00,1181.00
243,15148.00,5672.00,-1236.00,30.98,-708.00,-5192.00,-366.00
244,16080.00,5648.00,-800.00,31.12,-3550.00,-5271.00,1863.00
245,15448.00,7224.00,-2208.00,30.98,-3638.00,-1355.00,2946.00
246,14276.00,5868.00,-3800.00,31.12,786.00,338.00,2454.00
247,14960.00,5336.00,-5320.00,31.02,1210.00,463.00,1376.00
248,14888.00,4736.00,-3992.00,30.93,2039.00,115.00,438.00
249,14808.00,5452.00,-2532.00,30.98,966.00,1383.00,194.00
250,15044.00,6620.00,-2880.00,31.07,1763.00,2129.00,-889.00
251,15464.00,4896.00,-2980.00,30.98,4277.00,2274.00,-912.00
252,16436.00,5036.00,-1548.00,30.98,5235.00,2675.00,-719.00
253,14784.00,4904.00,-1140.00,30.98,5604.00,2828.00,525.00
254,14016.00,5696.00,-3036.00,30.98,2869.00,2315.00,-2651.00
255,16148.00,5908.00,-3440.00,30.93,3990.00,-121.00,-3696.00
256,16276.00,7336.00,-1368.00,30.93,-2105.00,1373.00,-1798.00
257,15284.00,8480.00,604.00,30.98,2440.00,2760.00,-271.00
258,14872.00,5676.00,-1048.00,31.02,2503.00,2251.00,-507.00
259,15540.00,5756.00,-2952.00,31.02,1408.00,1916.00,-2038.00
260,15656.00,5316.00,-1636.00,31.07,-1400.00,1113.00,-1194.00
261,15364.00,6036.00,-444.00,31.02,-2809.00,1706.00,-175.00
262,15004.00,6124.00,140.00,30.93,-3015.00,971.00,101.00
263,15208.00,6892.00,-300.00,30.98,-6444.00,-789.00,-628.00
264,16576.00,5260.00,2060.00,30.98,-6527.00,-3628.00,992.00
265,15612.00,6068.00,1928.00,30.98,-6214.00,-4444.00,3305.00
266,14876.00,7220.00,-1092.00,30.93,-1095.00,-3058.00,1174.00
267,15860.00,5700.00,-1756.00,31.07,-2375.00,-4272.00,-577.00
268,16228.00,4816.00,408.00,30.93,-3846.00,-2964.00,2066.00
269,15048.00,5652.00,-1332.00,31.02,-883.00,-199.00,2386.00
270,15468.00,6668.00,-3084.00,31.02,595.00,-300.00,1091.00
271,15580.00,5908.00,-2836.00,31.02,542.00,-373.00,448.00
272,15768.00,4804.00,-1964.00,31.02,1653.00,390.00,61.00
273,15884.00,4728.00,-1316.00,31.07,1485.00,768.00,145.00
274,15660.00,5388.00,-1060.00,31.02,1340.00,1630.00,-760.00
275,15812.00,5536.00,-2056.00,31.07,2865.00,2218.00,-2018.00
276,15880.00,4588.00,-1128.00,30.98,5247.00,2179.00,-2489.00
277,16024.00,5832.00,852.00,31.02,3866.00,3446.00,246.00
278,14772.00,7580.00,-92.00,30.88,4869.00,4228.00,-496.00
279,15328.00,6608.00,-2492.00,31.12,5674.00,3588.00,-3006.00
280,15816.00,5676.00,-2328.00,30.98,3736.00,1698.00,-4372.00
281,15940.00,5856.00,272.00,31.02,-82.00,97.00,-1100.00
282,15660.00,6272.00,2368.00,30.93,-2023.00,270.00,1203.00
283,15180.00,6532.00,1804.00,31.12,653.00,883.00,113.00
284,15592.00,6308.00,-920.00,30.98,-551.00,-966.00,-1974.00
285,15184.00,6256.00,-1036.00,31.07,-3894.00,-2669.00,-1138.00
286,15144.00,7464.00,-404.00,31.07,-6913.00,-2888.00,124.00
287,15036.00,7700.00,68.00,31.07,-5138.00,-2827.00,394.00
288,15896.00,6548.00,688.00,31.12,-5956.00,-3539.00,2242.00
289,15008.00,6572.00,1152.00,31.02,-4841.00,-2538.00,3329.00
290,14652.00,6728.00,-1128.00,30.98,-1343.00,-2878.00,815.00
291,16344.00,4868.00,-312.00,31.02,-577.00,-5528.00,-231.00
292,16416.00,5036.00,-396.00,31.02,-4730.00,-3813.00,1984.00
293,14580.00,5704.00,-912.00,30.98,-6748.00,-1634.00,1613.00
294,15212.00,6800.00,-2984.00,30.98,-1901.00,-1024.00,250.00
295,15392.00,5184.00,-3300.00,31.02,723.00,-911.00,294.00
296,15644.00,5056.00,-2044.00,31.07,-295.00,-313.00,-219.00
297,15276.00,5456.00,-1140.00,30.98,-1419.00,642.00,126.00
298,15524.00,7292.00,-1908.00,31.07,-521.00,2167.00,-788.00
299,15232.00,7088.00,-2032.00,30.98,2445.00,2540.00,-1124.00
300,15148.00,6312.00,-1804.00,30.93,6193.00,3045.00,-2392.00
301,16092.00,5680.00,-1308.00,30.98,4441.00,3561.00,-3528.00
302,15840.00,5840.00,872.00,31.02,3509.00,4600.00,-683.00
303,14632.00,8176.00,264.00,30.98,2256.00,5453.00,-1254.00
304,15432.00,8056.00,460.00,31.07,4782.00,2770.00,-2704.00
305,15460.00,6596.00,536.00,30.98,4127.00,1122.00,-1932.00
306,15360.00,7512.00,724.00,30.93,2337.00,1441.00,104.00
307,14652.00,6812.00,-736.00,31.07,2987.00,1308.00,9.00
308,15172.00,6616.00,-908.00,31.02,-110.00,1056.00,-695.00
309,15400.00,7836.00,-124.00,31.02,-3888.00,-762.00,-917.00
310,14952.00,8352.00,676.00,31.02,-4447.00,-1956.00,-519.00
311,15356.00,8184.00,644.00,31.02,-4598.00,-2309.00,-660.00
312,14972.00,7720.00,-264.00,31.12,-3523.00,-2948.00,-443.00
313,14736.00,7384.00,328.00,30.98,-4821.00,-2996.00,-776.00
314,15468.00,7688.00,1680.00,31.07,-6280.00,-3065.00,1484.00
315,14288.00,8120.00,1016.00,30.98,-4863.00,-2614.00,1199.00
316,15228.00,7256.00,732.00,30.93,-2934.00,-4312.00,543.00
317,15600.00,5196.00,1576.00,31.07,-3371.00,-5466.00,1849.00
318,15288.00,6304.00,656.00,31.02,-4404.00,-2466.00,2417.00
319,14980.00,6420.00,-1248.00,31.02,-1678.00,-1339.00,873.00
320,15164.00,5960.00,-1380.00,30.98,2004.00,-1760.00,817.00
321,15412.00,5400.00,-1188.00,31.07,1793.00,-867.00,1206.00
322,15756.00,5776.00,-1068.00,31.02,1420.00,-1609.00,1418.00
323,14456.00,5756.00,-732.00,31.02,-203.00,449.00,13.00
324,15204.00,8068.00,-4212.00,31.07,-335.00,2465.00,-2265.00
325,15188.00,7004.00,-4216.00,31.07,7541.00,2688.00,-1558.00
326,16104.00,6232.00,-1136.00,31.02,7261.00,4203.00,-1618.00
327,13584.00,7776.00,-140.00,31.07,6907.00,4497.00,-684.00
328,15484.00,7928.00,-1244.00,31.12,6907.00,3959.00,-4401.00
329,15360.00,6460.00,-1096.00,30.88,1216.00,1759.00,-5690.00
330,15636.00,6460.00,796.00,30.93,-1806.00,58.00,-1614.00
331,14164.00,8228.00,512.00,31.07,-778.00,1457.00,1463.00
332,14492.00,9128.00,-1388.00,30.93,4200.00,2411.00,429.00
333,15052.00,7652.00,-1668.00,31.02,2562.00,1458.00,-1363.00
334,15060.00,7068.00,16.00,31.07,-12.00,-413.00,-422.00
335,14664.00,7544.00,236.00,30.98,-1972.00,-511.00,384.00
336,14760.00,8216.00,-244.00,30.98,-3182.00,213.00,-465.00
337,14720.00,8320.00,-444.00,30.98,-3972.00,-1388.00,-1052.00
338,14736.00,7836.00,-352.00,31.02,-4919.00,-2675.00,-940.00
339,15496.00,7152.00,1444.00,30.98,-6610.00,-4050.00,2215.00
340,14212.00,8144.00,696.00,30.98,-4867.00,-1981.00,1885.00
341,14496.00,8392.00,-1776.00,30.98,-2217.00,-2461.00,645.00
342,14460.00,7724.00,-400.00,31.12,-4369.00,-5338.00,-106.00
343,15808.00,5508.00,1560.00,30.98,-5143.00,-3574.00,-427.00
344,15372.00,5540.00,372.00,31.02,-3016.00,-1574.00,1436.00
345,14900.00,6640.00,-872.00,31.02,-3183.00,-1836.00,1685.00
346,15168.00,7204.00,-280.00,31.07,-2296.00,-1148.00,594.00
347,14796.00,6928.00,-816.00,31.07,1947.00,-766.00,-205.00
348,14660.00,7540.00,-2040.00,30.98,-796.00,-73.00,-1083.00
349,14764.00,7844.00,-1916.00,31.07,-726.00,1193.00,-1066.00
350,14680.00,8284.00,-2056.00,31.12,1979.00,2940.00,-1141.00
351,15328.00,6892.00,-304.00,31.07,5697.00,4490.00,-873.00
352,14460.00,7108.00,1648.00,31.02,5372.00,4395.00,2632.00
353,13404.00,8696.00,-192.00,31.12,8844.00,4271.00,1239.00
354,14960.00,7568.00,-1320.00,30.98,7947.00,4523.00,-1973.00
355,15300.00,7472.00,456.00,31.07,7764.00,1972.00,-3229.00
356,15380.00,6940.00,1352.00,30.93,2972.00,1416.00,-1618.00
357,15624.00,7752.00,2152.00,31.02,1507.00,1333.00,553.00
358,14556.00,6708.00,392.00,31.02,3074.00,1807.00,619.00
359,15040.00,6672.00,-1860.00,31.07,4010.00,2471.00,-422.00
360,15268.00,7236.00,-1604.00,30.98,-17.00,-45.00,-1370.00
361,14852.00,7728.00,392.00,31.17,-3739.00,-824.00,-986.00
362,14844.00,8384.00,1008.00,31.07,-1947.00,-227.00,-554.00
363,14824.00,7688.00,128.00,31.07,-1164.00,-273.00,-158.00
364,15012.00,7172.00,-264.00,31.07,-2293.00,-624.00,-19.00
365,14996.00,7200.00,376.00,31.07,-4201.00,-1349.00,125.00
366,14668.00,7876.00,612.00,31.17,-4626.00,-1750.00,327.00
367,14828.00,8328.00,276.00,31.07,-4976.00,-2291.00,415.00
368,14552.00,8000.00,360.00,30.98,-5102.00,-3400.00,150.00
369,15440.00,7588.00,2000.00,31.02,-5759.00,-4847.00,2125.00
370,14268.00,8460.00,680.00,31.07,-4325.00,-3562.00,2062.00
371,15220.00,6992.00,-160.00,30.98,-1425.00,-4615.00,77.00
372,15788.00,5500.00,564.00,31.07,-3180.00,-5248.00,1060.00
373,15496.00,6108.00,292.00,31.07,-3288.00,-1816.00,2257.00
374,14792.00,6768.00,-1512.00,31.07,-805.00,-86.00,1891.00
375,15336.00,6352.00,-2312.00,31.07,864.00,454.00,870.00
376,15256.00,5860.00,-1940.00,31.12,1525.00,65.00,471.00
377,15636.00,5664.00,-1484.00,31.07,-572.00,-228.00,-905.00
378,15432.00,5936.00,-720.00,31.12,-1139.00,167.00,-1044.00
379,15200.00,6764.00,-1448.00,31.12,384.00,1190.00,-1531.00
380,15092.00,7020.00,-1524.00,31.12,2657.00,1985.00,-1859.00
381,15840.00,6892.00,436.00,31.07,3060.00,2569.00,414.00
382,14288.00,8372.00,156.00,31.02,3745.00,3932.00,916.00
383,14864.00,8176.00,-2168.00,31.07,6672.00,4360.00,-1418.00
384,15572.00,7296.00,-1972.00,31.17,6126.00,3756.00,-3995.00
385,15448.00,6288.00,260.00,31.02,2736.00,2472.00,-2850.00
386,15116.00,8000.00,2116.00,31.12,484.00,2554.00,1021.00
387,14792.00,8680.00,1456.00,31.02,1815.00,3516.00,1048.00
388,14992.00,7564.00,352.00,31.07,2620.00,2885.00,-171.00
389,15460.00,6616.00,696.00,31.07,320.00,1719.00,-535.00
390,15532.00,6280.00,2028.00,30.93,-1160.00,246.00,240.00
391,15200.00,6340.00,1668.00,31.02,-2636.00,-1354.00,657.00
392,15236.00,7136.00,712.00,31.02,-4807.00,-1888.00,121.00
393,15892.00,6808.00,2320.00,31.02,-6486.00,-3608.00,1080.00
394,15204.00,7288.00,3132.00,31.07,-6995.00,-4371.00,2441.00
395,14876.00,6804.00,988.00,31.07,-3533.00,-3193.00,1340.00
396,15588.00,6584.00,132.00,31.02,-3904.00,-4135.00,-599.00
397,16116.00,5764.00,1064.00,31.12,-4855.00,-5425.00,-576.00
398,15752.00,5780.00,1076.00,31.17,-3939.00,-4804.00,1229.00
399,14668.00,6660.00,-960.00,31.07,-1441.00,-1616.00,1917.00
400,15360.00,7124.00,-2912.00,31.02,1160.00,-404.00,679.00
401,15936.00,5876.00,-1508.00,31.12,73.00,-680.00,-411.00
402,16036.00,5024.00,-392.00,30.98,-230.00,-660.00,-40.00
403,15988.00,5144.00,-176.00,31.07,-553.00,-739.00,-64.00
404,15488.00,5940.00,-1256.00,31.07,-102.00,-295.00,-713.00
405,15576.00,6300.00,-1436.00,31.07,447.00,585.00,-1888.00
406,15336.00,6252.00,-844.00,31.07,1765.00,1349.00,-1778.00
407,15516.00,6176.00,-960.00,31.07,3399.00,2154.00,-1695.00
408,15356.00,6664.00,-76.00,31.07,1100.00,2283.00,480.00
409,14528.00,8756.00,212.00,31.07,4284.00,3192.00,-228.00
410,14980.00,9112.00,-208.00,31.12,6126.00,3599.00,-2778.00
411,15216.00,7736.00,68.00,31.02,4827.00,2832.00,-3524.00
412,15444.00,7100.00,928.00,31.02,3365.00,2642.00,-2509.00
413,15120.00,6984.00,1616.00,31.12,3298.00,724.00,354.00
414,14384.00,7144.00,-272.00,31.17,2230.00,998.00,495.00
415,15300.00,8172.00,-1540.00,31.02,1404.00,1019.00,-665.00
416,15240.00,7408.00,-324.00,31.02,-1521.00,-496.00,-944.00
417,15028.00,6664.00,84.00,31.07,-2464.00,-1774.00,359.00
418,14788.00,7540.00,-296.00,31.07,-4259.00,-1349.00,105.00
419,14776.00,8144.00,-612.00,31.07,-4881.00,-2076.00,-95.00
420,15228.00,7816.00,776.00,31.07,-6902.00,-2891.00,302.00
421,14752.00,7452.00,1772.00,31.07,-6695.00,-3761.00,2308.00
422,14296.00,7640.00,464.00,31.12,-3034.00,-1447.00,1739.00
423,14708.00,8488.00,-388.00,31.12,-1952.00,-2635.00,-1458.00
424,16056.00,6132.00,1456.00,31.07,-3708.00,-5193.00,-1355.00
425,15512.00,4924.00,1192.00,31.07,-5374.00,-5337.00,1975.00
426,14764.00,7252.00,-1908.00,31.12,2240.00,-254.00,3027.00
427,15924.00,7736.00,-3188.00,31.12,2657.00,-1123.00,966.00
428,15512.00,5680.00,-1340.00,31.02,-779.00,-820.00,604.00
429,15492.00,5452.00,-1236.00,31.02,-284.00,-558.00,788.00
430,14992.00,5932.00,-1112.00,31.12,-1267.00,-387.00,66.00
431,15220.00,6284.00,-1864.00,31.12,-1740.00,22.00,483.00
432,15340.00,7208.00,-2368.00,31.07,157.00,205.00,14.00
433,15048.00,6716.00,-1760.00,31.17,-274.00,1219.00,-1042.00
434,15508.00,6064.00,216.00,31.12,4067.00,2533.00,-426.00
435,15360.00,7608.00,-376.00,31.17,2626.00,2276.00,1022.00
436,13368.00,7788.00,-420.00,31.17,5876.00,1483.00,-439.00
437,16120.00,6456.00,-656.00,31.07,4056.00,1656.00,-2474.00
438,15612.00,6004.00,40.00,31.07,2944.00,954.00,-2224.00
439,15020.00,6960.00,-1184.00,31.12,3467.00,1281.00,-1112.00
440,15408.00,7036.00,-1056.00,31.12,2485.00,948.00,-705.00
441,14928.00,6640.00,-1220.00,31.12,800.00,501.00,-237.00
442,15264.00,6840.00,-672.00,31.12,-112.00,685.00,-797.00
443,15524.00,6808.00,-908.00,31.17,-1253.00,63.00,-983.00
444,15124.00,6976.00,-1084.00,31.12,-1898.00,16.00,-719.00
445,15200.00,7536.00,-1364.00,31.21,-3055.00,-247.00,-1129.00
446,14848.00,7572.00,-912.00,31.07,-4948.00,-422.00,-1750.00
447,15240.00,7152.00,1044.00,31.12,-5450.00,-1106.00,-837.00
448,14592.00,8068.00,1008.00,31.02,-4663.00,-1589.00,1341.00
449,14764.00,7840.00,-104.00,31.17,-2322.00,-411.00,826.00
450,15276.00,7372.00,-188.00,31.17,-4522.00,-1697.00,205.00
451,14784.00,7356.00,1128.00,31.17,-5532.00,-2880.00,-33.00
452,14960.00,7012.00,904.00,31.17,-2970.00,-2265.00,-339.00
453,15600.00,6472.00,1032.00,31.07,-2520.00,-2961.00,-296.00
454,15436.00,6148.00,1140.00,31.12,-2873.00,-2966.00,757.00
455,14620.00,7348.00,-496.00,31.02,-1248.00,-1364.00,1145.00
456,15232.00,7560.00,-1452.00,31.17,-1030.00,-416.00,301.00
457,15328.00,7280.00,-624.00,31.07,-296.00,-729.00,205.00
458,15012.00,6876.00,-692.00,31.12,709.00,645.00,-433.00
459,15100.00,7324.00,-1164.00,31.07,1809.00,1531.00,-783.00
460,15192.00,6732.00,-596.00,31.07,3052.00,2204.00,-811.00
461,15852.00,6052.00,1508.00,31.17,3266.00,2579.00,-74.00
462,14416.00,9204.00,280.00,31.17,3288.00,2212.00,1898.00
463,15072.00,8012.00,76.00,31.12,7675.00,2738.00,-155.00
464,15620.00,6396.00,192.00,31.07,4896.00,1742.00,-2342.00
465,15116.00,6860.00,888.00,31.17,1734.00,826.00,-1054.00
466,15276.00,8624.00,420.00,31.12,2681.00,746.00,689.00
467,14604.00,7800.00,-512.00,31.17,2941.00,750.00,969.00
468,15320.00,6992.00,-1600.00,31.12,971.00,1426.00,161.00
469,15332.00,6920.00,-656.00,31.07,-1108.00,142.00,-335.00
470,15160.00,7736.00,44.00,31.17,-3080.00,-1010.00,-246.00
471,14956.00,7752.00,284.00,31.17,-4527.00,-712.00,-444.00
472,14872.00,7832.00,-488.00,31.17,-5103.00,-1134.00,-679.00
473,15372.00,6848.00,1804.00,31.07,-7245.00,-2050.00,579.00
474,14576.00,7156.00,1432.00,31.12,-4864.00,-1291.00,1165.00
475,15344.00,7812.00,220.00,31.17,-2506.00,-1227.00,-645.00
476,16208.00,5676.00,1688.00,31.07,-3613.00,-3387.00,-1143.00
477,15388.00,5260.00,1800.00,31.12,-4430.00,-3754.00,468.00
478,15108.00,6848.00,-1080.00,31.21,-703.00,-827.00,1282.00
479,15416.00,7944.00,-1540.00,31.17,-1657.00,-726.00,-215.00
480,15320.00,6968.00,548.00,31.07,-1424.00,-1157.00,-247.00
481,15376.00,6704.00,1144.00,31.17,-454.00,-660.00,-126.00
482,15208.00,6872.00,756.00,31.17,-506.00,191.00,-506.00
483,15212.00,7100.00,32.00,31.21,262.00,568.00,-838.00
484,15164.00,7000.00,168.00,31.17,1184.00,1069.00,-1402.00
485,15316.00,6608.00,336.00,31.17,4294.00,2132.00,-916.00
486,15292.00,6580.00,1432.00,31.12,3657.00,1699.00,1201.00
487,14260.00,8648.00,472.00,31.12,5400.00,1803.00,1358.00
488,14780.00,8916.00,-1340.00,30.98,5836.00,2580.00,-1604.00
489,15488.00,7784.00,-540.00,31.21,3233.00,2071.00,-3190.00
490,15508.00,7564.00,1204.00,31.17,1488.00,290.00,-763.00
491,14936.00,7656.00,1568.00,31.21,1284.00,3.00,1357.00
492,14364.00,7968.00,160.00,31.07,1834.00,511.00,1082.00
493,15284.00,8028.00,-1312.00,31.12,583.00,751.00,-374.00
494,15340.00,7268.00,-540.00,31.17,-2102.00,-548.00,-504.00
495,14884.00,7608.00,392.00,31.21,-3738.00,-1011.00,148.00
496,14784.00,8140.00,228.00,31.21,-3662.00,-552.00,-21.00
497,15340.00,7696.00,920.00,31.17,-4419.00,-1176.00,-167.00
498,14776.00,7248.00,2128.00,31.21,-6739.00,-2577.00,1460.00
499,14564.00,7572.00,1580.00,31.17,-2076.00,-1176.00,1137.00
500,15616.00,6828.00,1116.00,31.17,-1656.00,-2150.00,-698.00
501,15932.00,5596.00,1676.00,31.12,-3463.00,-3929.00,-559.00
502,15000.00,6108.00,352.00,31.26,-2206.00,-2214.00,1231.00
503,15424.00,7556.00,-1956.00,31.07,525.00,-524.00,749.00
504,15420.00,7092.00,-1392.00,31.17,-496.00,-1295.00,40.00
505,15140.00,6172.00,68.00,31.21,-511.00,-794.00,18.00
506,15508.00,6280.00,588.00,31.07,-216.00,-405.00,-78.00
507,15324.00,6760.00,-12.00,31.17,245.00,314.00,-668.00
508,15388.00,6660.00,-352.00,31.12,894.00,1083.00,-1877.00
509,15324.00,6852.00,-308.00,31.12,3618.00,138.00,-154.00
510,15396.00,6276.00,40.00,31.21,4332.00,1056.00,660.00
511,14992.00,6652.00,488.00,31.26,4875.00,1194.00,1366.00
512,14756.00,8832.00,-784.00,31.12,5634.00,1855.00,857.00
513,15064.00,9056.00,-1308.00,31.02,6289.00,1629.00,-277.00
514,15192.00,6504.00,-680.00,31.21,4370.00,1249.00,-986.00
515,15760.00,6008.00,-456.00,31.12,2441.00,300.00,46.00
516,15236.00,6716.00,-1044.00,31.17,593.00,439.00,77.00
517,15356.00,6752.00,-1556.00,31.12,384.00,340.00,472.00
518,15524.00,6484.00,-1808.00,31.17,-760.00,-175.00,74.00
519,15428.00,6740.00,-1804.00,31.21,-4123.00,-905.00,-312.00
520,15040.00,6864.00,-1716.00,31.26,-5483.00,-1630.00,-1360.00
521,15696.00,6952.00,-152.00,31.17,-7900.00,-2422.00,-1382.00
522,14324.00,7212.00,520.00,31.17,-7804.00,-2434.00,81.00
523,15352.00,7664.00,272.00,31.17,-2295.00,-1900.00,-1673.00
524,15580.00,6192.00,1124.00,31.12,-2331.00,-3998.00,-532.00
525,15736.00,5316.00,740.00,31.12,-2518.00,-2009.00,1282.00
526,14960.00,6904.00,-1884.00,31.17,1284.00,524.00,828.00
527,15352.00,7012.00,-3332.00,31.21,271.00,131.00,-121.00
528,15336.00,6272.00,-1436.00,31.21,-571.00,-724.00,344.00
529,15100.00,5984.00,-132.00,31.12,-1231.00,-54.00,-313.00
530,15036.00,6628.00,-504.00,31.12,333.00,499.00,-943.00
531,14932.00,6516.00,-792.00,31.26,1154.00,900.00,-1426.00
532,15112.00,6356.00,-1160.00,31.17,2569.00,1070.00,-1107.00
533,16212.00,5816.00,0.00,31.12,924.00,2658.00,1232.00
534,14632.00,9636.00,-448.00,31.21,4243.00,3022.00,1170.00
535,12952.00,7900.00,-952.00,31.21,6664.00,2657.00,-906.00
536,16224.00,7980.00,-1080.00,31.21,2622.00,2555.00,-1671.00
537,14952.00,7620.00,748.00,31.17,1092.00,873.00,-1625.00
538,15020.00,7920.00,156.00,31.21,1613.00,1566.00,-135.00
539,15208.00,7752.00,-828.00,31.21,1515.00,1110.00,-344.00
540,14924.00,7716.00,-1012.00,31.21,1594.00,142.00,-196.00
541,14960.00,7192.00,-776.00,31.31,552.00,-1428.00,186.00
542,14772.00,7092.00,-728.00,31.17,-948.00,-2429.00,426.00
543,15068.00,7492.00,-1636.00,31.17,-2415.00,-2059.00,738.00
544,15360.00,8296.00,-1096.00,31.12,-3590.00,-1821.00,-460.00
545,15068.00,6640.00,208.00,31.26,-4489.00,-1719.00,-1048.00
546,15068.00,7072.00,1064.00,31.21,-6439.00,-2137.00,1337.00
547,14396.00,7168.00,140.00,31.21,-3082.00,-1386.00,-172.00
548,15360.00,6896.00,-444.00,31.26,-2661.00,-2694.00,-290.00
549,15416.00,6092.00,376.00,31.17,-2380.00,-2307.00,439.00
550,15420.00,6132.00,-1196.00,31.26,-1520.00,-1908.00,431.00
551,15444.00,6536.00,-2132.00,31.21,-2815.00,-1473.00,732.00
552,15308.00,6092.00,-1396.00,31.26,-2577.00,-1240.00,953.00
553,15480.00,6516.00,-668.00,31.26,-2186.00,-659.00,193.00
554,15408.00,7232.00,-444.00,31.17,-1102.00,-480.00,405.00
555,15116.00,7508.00,-308.00,31.26,-1250.00,747.00,-770.00
556,14872.00,7608.00,-1356.00,31.17,154.00,1998.00,-1197.00
557,15076.00,6708.00,-1580.00,31.17,1942.00,2964.00,-1487.00
558,15900.00,5908.00,96.00,31.12,2647.00,3297.00,99.00
559,14300.00,8092.00,1308.00,31.17,-1540.00,3667.00,1862.00
560,14596.00,10628.00,232.00,31.26,4996.00,2703.00,-603.00
561,15256.00,8688.00,728.00,31.17,7783.00,3109.00,-1750.00
562,14916.00,7976.00,1072.00,31.26,6437.00,2160.00,-1065.00
563,15588.00,7720.00,988.00,31.26,4303.00,1911.00,424.00
564,15016.00,7152.00,164.00,31.31,2765.00,1842.00,291.00
565,15204.00,6896.00,-900.00,31.17,2727.00,1262.00,250.00
566,15176.00,7516.00,-504.00,31.17,-267.00,132.00,-187.00
567,15144.00,7288.00,392.00,31.21,-1943.00,-1300.00,-103.00
568,14784.00,7528.00,436.00,31.17,-5645.00,-809.00,-101.00
569,15092.00,7864.00,740.00,31.26,-5129.00,-1326.00,-594.00
570,15444.00,7096.00,2524.00,31.26,-6662.00,-2370.00,1171.00
571,14780.00,7364.00,1080.00,31.26,-3228.00,-714.00,1092.00
572,15380.00,7168.00,360.00,31.31,-2229.00,-2374.00,-630.00
573,15652.00,6320.00,1740.00,31.21,-4005.00,-4511.00,-807.00
574,15840.00,6228.00,2304.00,31.26,-1992.00,-3551.00,-1102.00
575,15824.00,6160.00,660.00,31.31,-1737.00,-1122.00,-779.00
576,14908.00,6788.00,-876.00,31.31,-1825.00,-371.00,-232.00
577,15228.00,7100.00,-1888.00,31.26,-1836.00,-301.00,-1038.00
578,15400.00,6916.00,-1424.00,31.12,-719.00,-1220.00,-364.00
579,14772.00,7120.00,-136.00,31.26,-1623.00,-882.00,-280.00
580,14828.00,8168.00,292.00,31.17,-503.00,798.00,-922.00
581,14840.00,8164.00,388.00,31.26,1321.00,1842.00,-1196.00
582,16116.00,6532.00,1728.00,31.17,2697.00,2183.00,802.00
583,14284.00,11544.00,124.00,31.21,5051.00,1297.00,1529.00
584,14596.00,8796.00,-44.00,31.21,6773.00,3201.00,-609.00
585,15532.00,8208.00,356.00,31.12,4275.00,1583.00,-1525.00
586,14776.00,8788.00,984.00,31.31,3057.00,1394.00,-402.00
587,15092.00,8280.00,808.00,31.26,1925.00,894.00,29.00
588,14612.00,7424.00,-820.00,31.26,1029.00,889.00,-552.00
589,14880.00,7940.00,-768.00,31.26,-507.00,298.00,-397.00
590,15016.00,8428.00,516.00,31.26,-2748.00,-1032.00,-284.00
591,14684.00,8016.00,1048.00,31.26,-3338.00,-947.00,-44.00
592,14560.00,8336.00,676.00,31.35,-4790.00,-775.00,-445.00
593,15188.00,7624.00,2504.00,31.26,-5274.00,-2333.00,851.00
594,14092.00,8284.00,1708.00,31.26,-2353.00,-3124.00,1327.00
595,14704.00,8424.00,308.00,31.21,-338.00,-2614.00,573.00
596,15644.00,7292.00,1452.00,31.26,-813.00,-2884.00,-304.00
597,16720.00,6372.00,2272.00,31.21,-9.00,-2103.00,166.00
598,15812.00,6652.00,164.00,31.26,423.00,-544.00,-9.00
599,14508.00,6684.00,-692.00,31.17,-762.00,-164.00,-807.00
600,15176.00,6884.00,-880.00,31.17,-458.00,-525.00,-246.00
601,15396.00,5980.00,-300.00,31.26,-372.00,-1248.00,144.00
602,14900.00,6180.00,-92.00,31.21,-3355.00,-202.00,-704.00
603,15120.00,8120.00,-652.00,31.26,-634.00,-661.00,-935.00
604,14640.00,7912.00,-856.00,31.17,628.00,749.00,-783.00
605,16260.00,6440.00,852.00,31.35,4830.00,1118.00,1285.00
606,14044.00,7776.00,1168.00,31.21,3849.00,1758.00,3782.00
607,14288.00,9528.00,-40.00,31.31,5988.00,3183.00,1057.00
608,15952.00,8200.00,-732.00,31.26,5264.00,1779.00,-2336.00
609,15628.00,6576.00,144.00,31.21,2661.00,407.00,-832.00
610,15012.00,7536.00,-228.00,31.17,1717.00,1337.00,1132.00
611,14840.00,6932.00,-1844.00,31.26,1839.00,1690.00,-104.00
612,15540.00,7228.00,-2220.00,31.26,1149.00,808.00,-94.00
613,15568.00,7416.00,-316.00,31.21,-1610.00,-786.00,-96.00
614,15056.00,7364.00,592.00,31.21,-2669.00,-1005.00,-191.00
615,14756.00,6948.00,-268.00,31.26,-2231.00,-205.00,-322.00
616,15472.00,7076.00,100.00,31.26,-4085.00,-1233.00,-87.00
617,15232.00,7128.00,1464.00,31.26,-4955.00,-1544.00,1447.00
618,14732.00,6896.00,20.00,31.21,-2348.00,-667.00,-33.00
619,15612.00,7020.00,-1096.00,31.35,-3398.00,-2326.00,-533.00
620,15380.00,6232.00,804.00,31.21,-5282.00,-3982.00,-465.00
621,15760.00,5472.00,1068.00,31.21,-3853.00,-3114.00,-243.00
622,15288.00,5872.00,284.00,31.26,-1330.00,-1462.00,780.00
623,15220.00,7380.00,-1556.00,31.26,-771.00,-965.00,700.00
624,14900.00,6660.00,-1468.00,31.26,-475.00,-270.00,30.00
625,15496.00,6708.00,-1308.00,31.26,1203.00,161.00,262.00
626,15364.00,6600.00,-724.00,31.21,1576.00,1068.00,-230.00
627,15156.00,6972.00,-656.00,31.31,2052.00,1722.00,-862.00
628,15956.00,5928.00,584.00,31.12,3628.00,2334.00,26.00
629,15400.00,6520.00,932.00,31.26,2739.00,2473.00,2286.00
630,15144.00,7784.00,368.00,31.35,4343.00,2503.00,-498.00
631,15504.00,7608.00,332.00,31.21,3350.00,1729.00,-1804.00
632,15276.00,7420.00,420.00,31.31,3596.00,1932.00,-1769.00
633,15244.00,6520.00,96.00,31.21,8048.00,3274.00,-1423.00
634,15460.00,5928.00,832.00,31.26,9054.00,4907.00,-584.00
635,15468.00,5600.00,1504.00,31.26,6380.00,6394.00,363.00
636,14860.00,6272.00,416.00,31.40,5143.00,3297.00,813.00
637,15588.00,7848.00,-1472.00,31.26,4356.00,2275.00,-1207.00
638,15600.00,7920.00,-1072.00,31.31,1992.00,-519.00,-3265.00
639,14524.00,8164.00,-1420.00,31.26,3722.00,-2322.00,-4551.00
640,12908.00,8308.00,-1692.00,31.31,2314.00,-6326.00,-6775.00
641,15016.00,7080.00,-272.00,31.26,-2582.00,-6258.00,-9555.00
642,13824.00,7084.00,1844.00,31.21,-2105.00,-9520.00,-9077.00
643,13008.00,11380.00,-1144.00,31.21,921.00,-10881.00,-7247.00
644,10480.00,10120.00,-4264.00,31.35,2958.00,-12005.00,-5911.00
645,9336.00,11712.00,-6164.00,31.26,1354.00,-14180.00,-3641.00
646,7692.00,12692.00,-6304.00,31.26,770.00,-17397.00,-993.00
647,4780.00,10960.00,-7984.00,31.21,4817.00,-16862.00,-182.00
648,5972.00,10744.00,-8556.00,31.26,4956.00,-17425.00,638.00
649,3348.00,9484.00,-11004.00,31.31,4620.00,-16241.00,-587.00
650,-832.00,9260.00,-12196.00,31.17,6637.00,-16488.00,-3002.00
651,-2488.00,6332.00,-12156.00,31.17,9769.00,-9940.00,-3626.00
652,-2280.00,7920.00,-17024.00,31.21,8253.00,-9141.00,584.00
653,-2324.00,7712.00,-15896.00,31.26,5057.00,-5125.00,3388.00
654,388.00,7980.00,-14180.00,31.31,1789.00,-2902.00,696.00
655,-1796.00,5408.00,-12600.00,31.21,1084.00,-1277.00,-1453.00
656,-3936.00,6780.00,-13768.00,31.31,1392.00,-729.00,-1258.00
657,-3412.00,5780.00,-13264.00,31.26,-608.00,-296.00,426.00
658,-2868.00,4112.00,-13020.00,31.26,359.00,899.00,693.00
659,-3860.00,5496.00,-12656.00,31.31,1497.00,1252.00,83.00
660,-3708.00,6332.00,-12488.00,31.31,1797.00,1101.00,828.00
661,-2404.00,4704.00,-13864.00,31.35,1070.00,-247.00,994.00
662,-3880.00,4384.00,-13784.00,31.35,1447.00,-1794.00,-841.00
663,-3052.00,4332.00,-15156.00,31.31,979.00,-4.00,-312.00
664,-3168.00,4660.00,-13564.00,31.31,-601.00,518.00,-945.00
665,-2552.00,4348.00,-14104.00,31.31,-661.00,1409.00,-1208.00
666,-1796.00,5940.00,-15624.00,31.31,90.00,1073.00,-1667.00
667,-2496.00,3972.00,-12220.00,31.40,1341.00,1184.00,-639.00
668,-2708.00,4092.00,-14416.00,31.35,461.00,813.00,419.00
669,-2576.00,3812.00,-14460.00,31.31,-204.00,615.00,850.00
670,-1864.00,2952.00,-13816.00,31.21,179.00,186.00,259.00
671,-2224.00,5068.00,-14624.00,31.40,124.00,333.00,-162.00
672,-2144.00,5672.00,-15036.00,31.31,-1860.00,713.00,523.00
673,-1056.00,3352.00,-14440.00,31.31,-1687.00,741.00,-677.00
674,-3128.00,5656.00,-15144.00,31.26,-2381.00,368.00,-364.00
675,-2460.00,5348.00,-14196.00,31.21,-6943.00,-1456.00,645.00
676,-2220.00,5068.00,-13792.00,31.26,-8787.00,-5214.00,293.00
677,-3412.00,6772.00,-9776.00,31.26,-8514.00,-6260.00,1849.00
678,-2856.00,3096.00,-11388.00,31.31,-12440.00,1108.00,1191.00
679,-1500.00,15416.00,-22140.00,31.31,-4190.00,-4518.00,1218.00
680,-2936.00,5184.00,-10852.00,31.31,-1002.00,-525.00,-946.00
681,-6516.00,13140.00,-8860.00,31.35,-4364.00,-5903.00,4223.00
682,-4784.00,10516.00,-7168.00,31.35,1256.00,-1075.00,627.00
683,-1932.00,10636.00,-9272.00,31.35,1519.00,-2290.00,2247.00
684,-1520.00,10888.00,-10044.00,31.35,1907.00,-501.00,1993.00
685,-1472.00,6996.00,-10216.00,31.31,-2878.00,1668.00,1366.00
686,-2712.00,8060.00,-10864.00,31.35,3375.00,847.00,872.00
687,-4144.00,8500.00,-13900.00,31.35,-73.00,-1398.00,2185.00
688,-2828.00,10068.00,-11064.00,31.45,951.00,-507.00,-23.00
689,-3104.00,9468.00,-11296.00,31.40,2341.00,36.00,-1102.00
690,-3508.00,9392.00,-11264.00,31.31,442.00,-411.00,178.00
691,-3216.00,9264.00,-11628.00,31.31,155.00,70.00,-412.00
692,-3176.00,8372.00,-10948.00,31.35,-2362.00,-814.00,1544.00
693,-3396.00,9572.00,-11924.00,31.35,-510.00,158.00,-196.00
694,-3284.00,8944.00,-10848.00,31.35,-311.00,-239.00,-103.00
695,-3132.00,9292.00,-11380.00,31.31,-109.00,-119.00,-242.00
696,-3064.00,9408.00,-11508.00,31.31,-283.00,335.00,-45.00
697,-2988.00,9168.00,-11372.00,31.31,-1272.00,1097.00,292.00
698,-3080.00,10104.00,-11960.00,31.26,-2632.00,1646.00,635.00
699,-2720.00,9796.00,-10856.00,31.31,-3313.00,1258.00,650.00
700,-2632.00,9484.00,-10800.00,31.35,-1976.00,453.00,429.00
701,-2500.00,10160.00,-11032.00,31.31,-1242.00,-227.00,303.00
702,-2228.00,10088.00,-10280.00,31.35,-1495.00,-1114.00,680.00
703,-2152.00,10684.00,-10316.00,31.31,-1848.00,-1637.00,1126.00
704,-2132.00,10276.00,-10460.00,31.21,-240.00,-1865.00,690.00
705,-2356.00,10552.00,-10712.00,31.45,-850.00,-1253.00,506.00
706,-2524.00,10536.00,-10720.00,31.35,-1392.00,-651.00,402.00
707,-2648.00,10812.00,-10260.00,31.31,121.00,-529.00,-168.00
708,-2276.00,10496.00,-9844.00,31.35,-1204.00,-730.00,358.00
709,-2128.00,10252.00,-10052.00,31.31,1047.00,-180.00,-108.00
710,-2984.00,10480.00,-10800.00,31.35,1148.00,-422.00,-659.00
711,-2628.00,10536.00,-10204.00,31.31,-2027.00,-1013.00,879.00
712,-2780.00,10740.00,-10640.00,31.35,-195.00,-820.00,-138.00
713,-2864.00,10296.00,-10536.00,31.26,-478.00,-561.00,-129.00
714,-2968.00,10212.00,-10304.00,31.31,-543.00,-663.00,-74.00
715,-3112.00,10396.00,-10716.00,31.35,-570.00,-488.00,-185.00
716,-2856.00,10188.00,-10436.00,31.21,-64.00,-388.00,-484.00
717,-2856.00,10048.00,-10228.00,31.35,-456.00,-175.00,-449.00
718,-3000.00,10456.00,-10816.00,31.31,-394.00,52.00,-430.00
719,-2960.00,10348.00,-10784.00,31.26,-283.00,-108.00,-521.00
720,-3108.00,10200.00,-10392.00,31.40,-1067.00,-151.00,-38.00
721,-3144.00,10528.00,-10836.00,31.26,-376.00,-216.00,-331.00
722,-2984.00,10160.00,-9984.00,31.40,-850.00,-359.00,-46.00
723,-3160.00,10344.00,-10504.00,31.35,-672.00,-20.00,-128.00
724,-3068.00,10596.00,-10436.00,31.31,-736.00,-36.00,-149.00
725,-3048.00,10328.00,-10220.00,31.26,-782.00,-38.00,-51.00
726,-3016.00,10404.00,-10180.00,31.45,-568.00,-231.00,-62.00
727,-2972.00,10352.00,-9892.00,31.31,655.00,-413.00,-262.00
728,-4812.00,17408.00,-11216.00,31.31,-879.00,-1966.00,108.00
729,-3296.00,10224.00,-11040.00,31.35,-26.00,-264.00,-205.00
730,-3128.00,10388.00,-10408.00,31.40,-973.00,210.00,-282.00
731,-3000.00,10620.00,-10500.00,31.26,-1085.00,140.00,-336.00
732,-3076.00,10948.00,-10512.00,31.31,-1541.00,120.00,-414.00
733,-3092.00,10708.00,-10000.00,31.31,-1758.00,134.00,-59.00
734,-3360.00,10452.00,-9556.00,31.31,-68.00,-645.00,-511.00
735,-3180.00,10800.00,-10328.00,31.45,-232.00,-644.00,-397.00
736,-2988.00,10828.00,-9960.00,31.31,-341.00,-217.00,-244.00
737,-3164.00,10872.00,-10256.00,31.45,-1092.00,205.00,-90.00
738,-3136.00,10628.00,-9776.00,31.35,-748.00,-64.00,-36.00
739,-3164.00,10692.00,-9760.00,31.35,-580.00,-194.00,-176.00
740,-3148.00,11000.00,-10164.00,31.40,-159.00,-335.00,-237.00
741,-3028.00,10836.00,-9844.00,31.40,-388.00,-226.00,-212.00
742,-3128.00,10792.00,-9916.00,31.26,-570.00,-62.00,-159.00
743,-3312.00,10824.00,-9776.00,31.26,-76.00,-457.00,-237.00
744,-3152.00,10792.00,-9972.00,31.31,4.00,-594.00,-62.00
745,-3120.00,10952.00,-10064.00,31.26,-93.00,-381.00,-42.00
746,-3116.00,10764.00,-9928.00,31.26,-69.00,-283.00,-85.00
747,-3244.00,10672.00,-9908.00,31.40,-48.00,-234.00,-90.00
748,-3140.00,10844.00,-10160.00,31.40,-173.00,-10.00,-46.00
749,-3312.00,10728.00,-9896.00,31.40,-172.00,-88.00,-63.00
750,-3076.00,10732.00,-10124.00,31.40,-486.00,-6.00,-13.00
751,-3180.00,10712.00,-10108.00,31.21,-240.00,-137.00,-178.00
752,-3128.00,10624.00,-10008.00,31.31,-622.00,-138.00,-35.00
753,-3076.00,10808.00,-10012.00,31.35,-538.00,-94.00,-66.00
754,-3112.00,10800.00,-10232.00,31.35,-405.00,-103.00,-130.00
755,-3028.00,10740.00,-9844.00,31.31,-485.00,-142.00,-66.00
756,-3044.00,10848.00,-10104.00,31.35,-346.00,-92.00,-66.00
757,-2964.00,10704.00,-9820.00,31.35,-82.00,-164.00,-114.00
758,-3100.00,10704.00,-10192.00,31.31,-257.00,-129.00,-122.00
759,-3096.00,10768.00,-10156.00,31.26,-131.00,-141.00,-243.00
760,-3052.00,10620.00,-9884.00,31.31,-79.00,-230.00,-246.00
761,-2976.00,10776.00,-10036.00,31.26,-363.00,-157.00,-10.00
762,-2944.00,10684.00,-10028.00,31.35,-230.00,-50.00,-46.00
763,-3040.00,10728.00,-10048.00,31.31,-493.00,-110.00,30.00
764,-2968.00,10760.00,-10048.00,31.40,-383.00,-80.00,38.00
765,-2908.00,10664.00,-9964.00,31.31,-306.00,-65.00,-51.00
766,-2892.00,10768.00,-10092.00,31.40,-343.00,-52.00,-102.00
767,-2856.00,10700.00,-10092.00,31.35,-538.00,-155.00,-104.00
768,-2808.00,10908.00,-10240.00,31.31,-187.00,-306.00,-234.00
769,-2856.00,10656.00,-10124.00,31.35,-257.00,-293.00,-177.00
770,-3024.00,10812.00,-10196.00,31.35,-416.00,-253.00,-150.00
771,-2912.00,10700.00,-10108.00,31.31,-146.00,-252.00,-193.00
772,-2916.00,10688.00,-9956.00,31.26,-429.00,-236.00,-152.00
773,-2956.00,10712.00,-10172.00,31.31,-390.00,-280.00,-164.00
774,-2992.00,10732.00,-10080.00,31.35,-308.00,-257.00,-217.00
775,-2908.00,10724.00,-10124.00,31.26,-237.00,-252.00,-246.00
776,-3016.00,10812.00,-9980.00,31.40,-355.00,-255.00,-183.00
777,-2900.00,10744.00,-9856.00,31.35,-233.00,-279.00,-288.00
778,-3016.00,10676.00,-10068.00,31.35,-374.00,-286.00,-188.00
779,-3000.00,10748.00,-10100.00,31.40,-262.00,-299.00,-199.00
780,-3136.00,10684.00,-9948.00,31.31,-342.00,-259.00,-218.00
781,-2936.00,10636.00,-10056.00,31.31,-347.00,-256.00,-173.00
782,-3108.00,10756.00,-10284.00,31.35,-439.00,-219.00,-140.00
783,-3012.00,10660.00,-10212.00,31.35,-264.00,-272.00,-270.00
784,-3092.00,10676.00,-9912.00,31.31,-616.00,-215.00,-35.00
785,-2852.00,10716.00,-10156.00,31.31,-461.00,-165.00,-148.00
786,-3048.00,10684.00,-10108.00,31.35,-360.00,-173.00,-261.00
787,
Sample,aX,aY,az,Temp,gX,gY,gz
1,-2544.00,11224.00,-9556.00,31.31,-190.00,-698.00,730.00
2,-2520.00,11432.00,-10044.00,31.35,-203.00,366.00,396.00
3,-2444.00,11528.00,-10036.00,31.31,-857.00,238.00,495.00
4,-2168.00,12172.00,-9584.00,31.31,466.00,-282.00,293.00
5,-2064.00,10840.00,-9168.00,31.26,364.00,-869.00,269.00
6,-2044.00,10880.00,-9420.00,31.31,360.00,-726.00,383.00
7,-2468.00,10616.00,-9916.00,31.31,358.00,-905.00,417.00
8,-2508.00,10628.00,-9952.00,31.35,525.00,-1031.00,727.00
9,-2424.00,10772.00,-9832.00,31.31,530.00,-1282.00,726.00
10,-2028.00,11064.00,-10188.00,31.35,-96.00,-1176.00,834.00
11,-1900.00,10676.00,-10060.00,31.26,-147.00,-617.00,495.00
12,-2644.00,11448.00,-10312.00,31.31,64.00,-629.00,164.00
13,-2396.00,10816.00,-10440.00,31.26,9.00,-652.00,260.00
14,-2312.00,10792.00,-10408.00,31.35,-456.00,-186.00,141.00
15,-2372.00,10912.00,-10412.00,31.35,-320.00,-345.00,87.00
16,-2236.00,11128.00,-10276.00,31.35,-992.00,-372.00,280.00
17,-2296.00,10828.00,-10132.00,31.26,-613.00,64.00,-159.00
18,-2352.0