0,5968.00,-7808.00,28.34,-1075.00,205.00,-130.00                                
355,-11228.00,6020.00,-7756.00,28.34,-482.00,38.00,574.00                       
35.00                                                                           
354,-11272.00,5968.00,-7808.00,28.34,-1075.00,205.00,-130.00                    
355,-11228.00,6020.00,-7756.00,28.34,-482.00,38.00,574.00                       
356,0                                                                           
354,-11272.00,5968.00,-7808.00,28.34,-1075.00,205.00,-130.00                    
355,-11228.00,6020.00,-7756.00,28.34,-482.00,38.00,574.00                       
356,-1                                                                     
Sample,aX,aY,az,Temp,gX,gY,gz                                                   
1,-7400.00,10908.00,-7112.00,28.39,1102.00,-892.00,282.00                       
2,-6776.00,11464.00,-7560.00,28.39,-110.00,-182.00,-351.00                      
3,-7016.00,11692.00,-7480.00,28.34,136.00,17.00,-486.00                         
4,-7708.00,10776.00,-7076.00,28.25,381.00,-412.00,-628.00                       
5,-7520.00,10888.00,-7168.00,28.25,421.00,-379.00,-727.00                       
6,-6916.00,11096.00,-7680.00,28.44,-1123.00,393.00,-1250.00                     
7,-7220.00,10408.00,-7760.00,28.39,-695.00,502.00,-1718.00                      
8,-7588.00,10088.00,-7400.00,28.34,82.00,-41.00,-613.00                         
9,-7516.00,10508.00,-7672.00,28.39,643.00,-6.00,-292.00                         
10,-8072.00,10560.00,-7772.00,28.39,-34.00,-221.00,202.00                       
11,-7416.00,10576.00,-7516.00,28.29,-550.00,-268.00,-137.00                     
12,-7216.00,10632.00,-7428.00,28.25,-589.00,50.00,-154.00                       
13,-7748.00,10620.00,-7692.00,28.44,-568.00,143.00,-119.00                      
14,-7568.00,10808.00,-7704.00,28.39,-831.00,180.00,-369.00                      
15,-7468.00,10764.00,-7388.00,28.39,-855.00,89.00,-475.00                       
16,-7628.00,10552.00,-7556.00,28.29,-495.00,-49.00,-621.00                      
17,-7752.00,10256.00,-7584.00,28.34,-671.00,-80.00,-318.00                      
18,-7616.00,10476.00,-7464.00,28.34,57.00,-263.00,297.00                        
19,-7428.00,11060.00,-7584.00,28.34,-615.00,-101.00,19.00                       
20,-7636.00,10852.00,-7360.00,28.25,304.00,-392.00,255.00                       
21,-7336.00,10844.00,-7656.00,28.25,-549.00,15.00,-285.00                       
22,-7380.00,10824.00,-7420.00,28.44,-412.00,52.00,-377.00                       
23,-7576.00,10576.00,-7740.00,28.29,-139.00,0.00,-21                            
3.00
24,-7632.00,10356.00,-7548.00,28.25,-492.00,56.00,-499.00
25,-7384.00,10532.00,-7640.00,28.39,-400.00,-68.00,-110.00
26,-7624.00,10308.00,-7480.00,28.39,-94.00,-213.00,101.00
27,-7440.00,10704.00,-7740.00,28.29,-377.00,-253.00,100.00
28,-7364.00,10956.00,-7708.00,28.25,-371.00,-328.00,33.00
29,-7276.00,10824.00,-7640.00,28.34,-380.00,-346.00,-171.00
30,-7516.00,10556.00,-7536.00,28.29,-377.00,-258.00,-315.00
31,-7628.00,10468.00,-7608.00,28.34,-586.00,-150.00,-188.00
32,-7624.00,10568.00,-7592.00,28.39,-199.00,-206.00,101.00
33,-7444.00,10712.00,-7536.00,28.39,-596.00,-171.00,-29.00
34,-7552.00,10824.00,-7668.00,28.25,-134.00,-165.00,-32.00
35,-7596.00,10532.00,-7356.00,28.34,-512.00,-162.00,-288.00
36,-7580.00,10588.00,-7636.00,28.39,-505.00,-164.00,-227.00
37,-7560.00,10592.00,-7644.00,28.25,-355.00,-266.00,47.00
38,-7608.00,10548.00,-7408.00,28.34,-241.00,-287.00,195.00
39,-7396.00,10820.00,-7572.00,28.29,-495.00,-271.00,-9.00
40,-7416.00,10852.00,-7516.00,28.39,-299.00,-270.00,-57.00
41,-7544.00,10568.00,-7304.00,28.34,-404.00,-102.00,-189.00
42,-7368.00,10784.00,-7520.00,28.29,-447.00,-132.00,-111.00
43,-7724.00,10484.00,-7296.00,28.25,-394.00,-219.00,-105.00
44,-7328.00,10836.00,-7552.00,28.25,-492.00,-161.00,-124.00
45,-7488.00,10760.00,-7600.00,28.25,-390.00,-214.00,-160.00
46,-7448.00,10784.00,-7328.00,28.29,-336.00,-292.00,-97.00
47,-7640.00,10736.00,-7432.00,28.29,-143.00,-329.00,-64.00
48,-7396.00,10944.00,-7748.00,28.34,-400.00,-296.00,-338.00
49,-7520.00,11168.00,-7844.00,28.39,144.00,-835.00,-496.00
50,-7420.00,10768.00,-7512.00,28.29,898.00,-1196.00,-977.00
51,-7748.00,10384.00,-7604.00,28.34,409.00,-1250.00,-1042.00
52,-7768.00,10696.00,-7588.00,28.29,458.00,-1136.00,-1199.00
53,-8368.00,10260.00,-7636.00,28.20,964.00,-1680.00,-1244.00
54,-8392.00,9792.00,-7260.00,28.25,611.00,-1094.00,-1887.00
55,-8792.00,9916.00,-7092.00,28.29,1083.00,-804.00,-1555.00
56,-8656.00,9196.00,-7512.00,28.25,-58.00,-482.00,-2003.00
57,-8876.00,9312.00,-7696.00,28.39,130.00,-637.00,-2334.00
58,-9436.00,9200.00,-7404.00,28.34,1203.00,-727.00,-2134.00
59,-9224.00,9244.00,-7120.00,28.34,-157.00,-18.00,-2448.00
60,-9604.00,8784.00,-7256.00,28.29,838.00,467.00,-2158.00
61,-9500.00,8460.00,-7776.00,28.20,-260.00,797.00,-2725.00
62,-9868.00,7844.00,-7896.00,28.25,162.00,994.00,-2512.00
63,-9832.00,7472.00,-8304.00,28.25,-481.00,1182.00,-1636.00
64,-9760.00,7612.00,-8428.00,28.39,-251.00,663.00,-1135.00
65,-9748.00,7620.00,-8332.00,28.25,320.00,40.00,-214.00
66,-9344.00,7624.00,-8160.00,28.39,1411.00,562.00,-47.00
67,-10068.00,7164.00,-8060.00,28.20,-309.00,-27.00,267.00
68,-9740.00,6824.00,-9336.00,28.39,1834.00,-833.00,667.00
69,-9848.00,7268.00,-8248.00,28.39,266.00,-187.00,1979.00
70,-9196.00,7824.00,-8796.00,28.29,514.00,-698.00,1128.00
71,-9240.00,8080.00,-8696.00,28.34,187.00,-843.00,699.00
72,-9116.00,8664.00,-8168.00,28.20,57.00,-514.00,-49.00
73,-9620.00,7680.00,-8024.00,28.39,-905.00,402.00,-1616.00
74,-9612.00,6952.00,-8892.00,28.29,-1062.00,56.00,-1128.00
75,-9772.00,7088.00,-8644.00,28.25,250.00,-741.00,504.00
76,-9460.00,7364.00,-8504.00,28.34,-284.00,-487.00,778.00
77,-9396.00,7952.00,-8336.00,28.34,-105.00,-924.00,526.00
78,-9576.00,7784.00,-8420.00,28.34,-129.00,-450.00,742.00
79,-9652.00,7928.00,-8308.00,28.34,-485.00,-431.00,365.00
80,-9592.00,7728.00,-8208.00,28.29,-691.00,-402.00,75.00
81,-9396.00,8164.00,-8528.00,28.34,-546.00,-321.00,396.00
82,-9308.00,8544.00,-8028.00,28.29,-372.00,-366.00,-230.00
83,-9804.00,7220.00,-8032.00,28.29,-236.00,-409.00,-402.00
84,-9720.00,7460.00,-8472.00,28.34,-668.00,-150.00,253.00
85,-9448.00,8200.00,-8504.00,28.34,-473.00,-490.00,237.00
86,-9468.00,8164.00,-8296.00,28.34,-565.00,-100.00,23.00
87,-9396.00,8392.00,-8384.00,28.29,-252.00,-130.00,-32.00
88,-9620.00,7756.00,-8164.00,28.29,-286.00,-334.00,-344.00
89,-9852.00,7588.00,-8208.00,28.29,95.00,-303.00,431.00
90,-9324.00,8380.00,-8456.00,28.29,-572.00,-16.00,204.00
91,-9248.00,8124.00,-8300.00,28.29,-290.00,-280.00,-168.00
92,-9132.00,8440.00,-8312.00,28.29,-987.00,400.00,-710.00
93,-9620.00,7876.00,-7856.00,28.34,159.00,-517.00,-818.00
94,-9844.00,7188.00,-8032.00,28.34,-165.00,232.00,-76.00
95,-9396.00,7992.00,-8696.00,28.34,-490.00,-397.00,62.00
96,-9548.00,7764.00,-8136.00,28.34,90.00,-278.00,336.00
97,-9496.00,7776.00,-8412.00,28.39,-451.00,-124.00,396.00
98,-9304.00,8388.00,-8560.00,28.29,-843.00,42.00,-79.00
99,-9292.00,8364.00,-8268.00,28.29,-512.00,-399.00,-116.00
100,-9664.00,7764.00,-7900.00,28.34,-492.00,-151.00,-564.00
101,-9504.00,7992.00,-8732.00,28.29,-592.00,-341.00,31.00
102,-9188.00,7968.00,-8404.00,28.29,210.00,-537.00,-144.00
103,-9856.00,7516.00,-8372.00,28.29,1618.00,-991.00,1187.00
104,-9684.00,7088.00,-8076.00,28.34,2400.00,-1502.00,2243.00
105,-9688.00,7568.00,-8876.00,28.29,1325.00,-712.00,3190.00
106,-8196.00,9432.00,-9220.00,28.29,307.00,-835.00,1289.00
107,-8680.00,8872.00,-9172.00,28.29,711.00,-1579.00,448.00
108,-9052.00,8164.00,-8460.00,28.34,1647.00,-2232.00,7.00
109,-10784.00,6692.00,-7260.00,28.25,953.00,-1884.00,203.00
110,-10548.00,6836.00,-6824.00,28.29,1077.00,-1063.00,523.00
111,-9196.00,8424.00,-8872.00,28.34,-1766.00,1121.00,-349.00
112,-9260.00,7880.00,-8068.00,28.34,-2660.00,346.00,-1777.00
113,-10120.00,7388.00,-8992.00,28.29,-3912.00,1579.00,524.00
114,-9988.00,6420.00,-6948.00,28.34,-834.00,341.00,2830.00
115,-9036.00,7652.00,-6980.00,28.29,708.00,1381.00,5948.00
116,-8296.00,8372.00,-8148.00,28.29,-1984.00,2368.00,5171.00
117,-7844.00,7512.00,-6740.00,28.25,-3837.00,3469.00,5325.00
118,-5092.00,9704.00,-7832.00,28.25,-6288.00,6001.00,2606.00
119,-4400.00,7260.00,-6660.00,28.34,-676.00,6617.00,-287.00
120,-5760.00,7804.00,-7436.00,28.25,2520.00,7792.00,-6642.00
121,-4964.00,13728.00,-11508.00,28.29,1757.00,7073.00,-1080.00
122,-4144.00,10172.00,-11188.00,28.29,5929.00,13466.00,32767.00
123,-2044.00,13172.00,-14116.00,28.25,-3364.00,4401.00,2700.00
124,3384.00,9568.00,-11700.00,28.34,4812.00,3494.00,5817.00
125,4112.00,10372.00,-12760.00,28.29,4959.00,3029.00,909.00
126,3880.00,8528.00,-11100.00,28.34,4083.00,3281.00,-2371.00
127,1292.00,8584.00,-14604.00,28.29,7943.00,1951.00,-1560.00
128,2812.00,6164.00,-13864.00,28.34,4367.00,2668.00,926.00
129,1080.00,6796.00,-13632.00,28.29,1289.00,-565.00,2194.00
130,2728.00,6268.00,-12768.00,28.34,2675.00,958.00,2129.00
131,3956.00,6684.00,-14756.00,28.34,1671.00,1188.00,1270.00
132,3648.00,5400.00,-13924.00,28.39,54.00,172.00,854.00
133,3752.00,5900.00,-12772.00,28.29,3501.00,102.00,1255.00
134,3364.00,5112.00,-13472.00,28.29,1276.00,-639.00,206.00
135,3176.00,3636.00,-14984.00,28.39,248.00,-559.00,512.00
136,3252.00,4608.00,-13600.00,28.34,-1462.00,-369.00,1031.00
137,3536.00,5476.00,-13416.00,28.20,-2209.00,-1021.00,535.00
138,3732.00,4968.00,-13616.00,28.25,-348.00,328.00,43.00
139,3668.00,5184.00,-14368.00,28.25,-2204.00,543.00,-401.00
140,3432.00,4800.00,-13020.00,28.29,-1440.00,-394.00,-562.00
141,3636.00,5820.00,-13920.00,28.34,-1211.00,80.00,-210.00
142,3832.00,5332.00,-13252.00,28.44,-264.00,-368.00,-521.00
143,3880.00,5416.00,-14024.00,28.29,-392.00,93.00,-646.00
144,3764.00,5296.00,-13928.00,28.29,-877.00,-417.00,-682.00
145,3428.00,5404.00,-13304.00,28.25,-395.00,-479.00,-713.00
146,3848.00,5652.00,-13988.00,28.29,-158.00,-74.00,-104.00
147,3128.00,5272.00,-12916.00,28.34,-566.00,-380.00,-410.00
148,3336.00,5656.00,-13484.00,28.34,-587.00,-244.00,-631.00
149,3468.00,5764.00,-13596.00,28.34,-1074.00,-255.00,-695.00
150,2320.00,6956.00,-14232.00,28.29,149.00,-193.00,-1228.00
151,3292.00,5736.00,-13612.00,28.25,-882.00,-356.00,-681.00
152,2932.00,5172.00,-13236.00,28.39,486.00,-149.00,296.00
153,3600.00,5576.00,-13784.00,28.29,1015.00,358.00,647.00
154,3528.00,5576.00,-13884.00,28.34,162.00,193.00,123.00
155,3688.00,5340.00,-13444.00,28.29,-467.00,-44.00,-217.00
156,3660.00,5044.00,-13684.00,28.34,-261.00,-58.00,-814.00
157,3268.00,5496.00,-13752.00,28.29,-905.00,-189.00,-276.00
158,3732.00,5516.00,-13480.00,28.25,-336.00,-191.00,582.00
159,3800.00,5228.00,-13296.00,28.29,-146.00,-40.00,-76.00
160,3348.00,5552.00,-14184.00,28.29,-197.00,-298.00,198.00
161,3268.00,5352.00,-13448.00,28.25,-850.00,-255.00,750.00
162,3708.00,5904.00,-13252.00,28.25,-120.00,-91.00,1045.00
163,4272.00,5596.00,-13776.00,28.20,-129.00,68.00,0.00
164,3424.00,5388.00,-13388.00,28.25,-825.00,-318.00,-662.00
165,3508.00,5300.00,-13180.00,28.34,-774.00,-240.00,-9.00
166,3656.00,5656.00,-13620.00,28.25,-246.00,-234.00,-136.00
167,3512.00,5516.00,-13640.00,28.29,-756.00,-351.00,-456.00
168,4012.00,6056.00,-13872.00,28.34,-973.00,-216.00,-449.00
169,3112.00,5560.00,-13112.00,28.29,-548.00,-287.00,-736.00
170,3372.00,5740.00,-13420.00,28.34,264.00,46.00,98.00
171,3700.00,5824.00,-13680.00,28.25,-230.00,-107.00,-463.00
172,3352.00,5292.00,-13024.00,28.25,-617.00,-156.00,-656.00
173,3756.00,6028.00,-13828.00,28.25,-652.00,-156.00,-722.00
174,3472.00,5288.00,-13360.00,28.20,-1463.00,-375.00,-1010.00
175,3136.00,5712.00,-13204.00,28.25,-326.00,-410.00,-35.00
176,3504.00,6032.00,-13644.00,28.20,-475.00,-194.00,-67.00
177,3532.00,5988.00,-13200.00,28.34,-727.00,-244.00,-52.00
178,3140.00,6060.00,-13464.00,28.25,-824.00,-193.00,-105.00
179,3788.00,6416.00,-13984.00,28.39,-2296.00,-468.00,-259.00
180,3440.00,6356.00,-12880.00,28.34,-1307.00,-935.00,-449.00
181,3256.00,6556.00,-12812.00,28.34,-862.00,-351.00,-340.00
182,2892.00,6312.00,-13048.00,28.29,476.00,280.00,1069.00
183,3308.00,6676.00,-13680.00,28.29,236.00,-59.00,203.00
184,3496.00,6404.00,-13244.00,28.39,-828.00,-285.00,126.00
185,3688.00,6600.00,-12952.00,28.20,-269.00,-385.00,-234.00
186,3028.00,6464.00,-13332.00,28.34,-129.00,-71.00,-149.00
187,3228.00,6480.00,-12792.00,28.29,-325.00,-257.00,25.00
188,3332.00,6500.00,-13296.00,28.39,96.00,-113.00,117.00
189,3208.00,6324.00,-13292.00,28.29,-175.00,-26.00,52.00
190,3232.00,6356.00,-13088.00,28.25,-235.00,-70.00,-51.00
191,3400.00,6224.00,-13148.00,28.34,-23.00,-37.00,60.00
192,3484.00,6192.00,-13428.00,28.34,136.00,2.00,-23.00
193,3364.00,6104.00,-13080.00,28.29,72.00,-20.00,-213.00
194,3260.00,5988.00,-13484.00,28.29,203.00,78.00,202.00
195,3768.00,6084.00,-13568.00,28.29,180.00,56.00,-212.00
196,3272.00,5972.00,-13060.00,28.25,-492.00,-140.00,-756.00
197,3424.00,5276.00,-13036.00,28.20,767.00,107.00,118.00
198,3560.00,5896.00,-13756.00,28.29,954.00,316.00,212.00
199,3692.00,5700.00,-13660.00,28.29,876.00,411.00,195.00
200,3976.00,5596.00,-14108.00,28.25,-294.00,-10.00,-629.00
201,3412.00,5632.00,-13220.00,28.25,339.00,-528.00,-441.00
202,3808.00,5156.00,-13636.00,28.20,291.00,-106.00,155.00
203,3612.00,5588.00,-13576.00,28.29,-154.00,-113.00,-356.00
204,3680.00,5112.00,-13712.00,28.25,73.00,-179.00,-404.00
205,3516.00,5688.00,-13504.00,28.34,194.00,-90.00,-229.00
206,3636.00,5764.00,-13512.00,28.34,887.00,-98.00,173.00
207,3576.00,4820.00,-14060.00,28.34,886.00,-94.00,764.00
208,3860.00,5700.00,-13556.00,28.29,1461.00,31.00,531.00
209,3552.00,4196.00,-14620.00,28.29,-3858.00,324.00,-314.00
210,3976.00,5580.00,-13820.00,28.25,-2491.00,91.00,-54.00
211,3712.00,5272.00,-13688.00,28.34,-1187.00,-570.00,46.00
212,4276.00,5224.00,-14528.00,28.29,-4031.00,-152.00,-521.00
213,4016.00,5264.00,-12880.00,28.25,-5370.00,-98.00,-1102.00
214,3088.00,5548.00,-11512.00,28.29,-3498.00,-21.00,-45.00
215,4392.00,7780.00,-13092.00,28.39,1775.00,481.00,-191.00
216,3864.00,6128.00,-12692.00,28.34,-386.00,-4.00,-919.00
217,3332.00,5836.00,-12992.00,28.34,-90.00,-349.00,-145.00
218,4040.00,6732.00,-12896.00,28.34,635.00,-197.00,194.00
219,3868.00,6780.00,-13288.00,28.39,225.00,-425.00,-847.00
220,3632.00,5512.00,-13064.00,28.39,239.00,-502.00,-257.00
221,3760.00,7060.00,-13452.00,28.34,36.00,-240.00,-81.00
222,4320.00,6204.00,-12696.00,28.29,524.00,791.00,977.00
223,3528.00,6072.00,-13464.00,28.29,-90.00,-159.00,5.00
224,3684.00,5120.00,-13120.00,28.34,-240.00,-194.00,252.00
225,3692.00,6176.00,-13412.00,28.39,-292.00,-102.00,-413.00
226,3500.00,6276.00,-13252.00,28.34,-226.00,-269.00,-165.00
227,4740.00,5708.00,-16136.00,28.34,415.00,-1027.00,545.00
228,3884.00,4920.00,-12292.00,28.39,-31.00,1324.00,390.00
229,3556.00,6,28.29,-317.00,-161.00,-81.00
359,3876.00,6380.00,-12872.00,28.34,-362.00,-202.00,-123.00
360,3900.00,6356.00,-13116.00,28.29,-399.00,-148.00,-183.00
361,3880.00,6412.00,-12940.00,28.25,-346.00,-116.00,-172.00
362,3904.00,6352.00,-13004.00,28.48,-330.00,-164.00,-91.00
363,3916.00,6348.00,-13036.00,28.34,-416.00,-116.00,-167.00
364,3896.00,6300.00,-13100.00,28.39,-295.00,-159.00,-126.00
365,3936.00,6452.00,-13040.00,28.34,-447.00,-109.00,-207.00
366,3948.00,6364.00,-12876.00,28.34,-368.00,-72.00,-102.00
367,3844.00,6396.00,-12932.00,28.29,-433.00,-114.00,-86.00
368,4052.00,6256.00,-13072.00,28.25,-627.00,-9.00,-118.00
369,3932.00,6424.00,-13116.00,28.25,-344.00,-81.00,-101.00
370,4072.00,6440.00,-13108.00,28.39,-400.00,-154.00,-143.00
371,3864.00,6336.00,-12968.00,28.25,-352.00,-221.00,-125.00
372,3964.00,6368.00,-13180.00,28.34,-371.00,-141.00,-119.00
373,4056.00,6424.00,-12988.00,28.34,-340.00,-235.00,-87.00
374,3972.00,6460.00,-13096.00,28.25,-375.00,-275.00,-142.00
375,3976.00,6416.00,-13124.00,28.39,-413.00,-240.00,-185.00
376,3832.00,6460.00,-13092.00,28.34,-308.00,-195.00,-135.00
377,4020.00,6408.00,-12988.00,28.29,-386.00,-210.00,-207.00
378,3832.00,6384.00,-13036.00,28.34,-340.00,-198.00,-156.00
379,3988.00,6364.00,-13056.00,28.25,-498.00,-208.00,-202.00
380,3876.00,6400.00,-13008.00,28.25,-324.00,-213.00,-85.00
381,3964.00,6404.00,-13120.00,28.34,-375.00,-256.00,-181.
Sample,aX,aY,az,Temp,gX,gY,gz
1,3972.00,5920.00,-13080.00,28.34,-160.00,-165.00,-21.00
2,4164.00,6104.00,-13300.00,28.34,-3.00,-167.00,1.00
3,3960.00,5876.00,-13256.00,28.34,-411.00,-153.00,-175.00
4,4096.00,5984.00,-13284.00,28.39,-700.00,-189.00,-266.00
5,4144.00,6124.00,-13232.00,28.29,-689.00,-162.00,-206.00
6,3944.00,5996.00,-13156.00,28.20,-674.00,-207.00,-365.00
7,4044.00,6280.00,-13224.00,28.29,-730.00,-142.00,-322.00
8,4096.00,6492.00,-13328.00,28.29,-2182.00,-626.00,-1717.00
9,3696.00,6684.00,-12048.00,28.25,-658.00,271.00,-41.00
10,3592.00,6528.00,-12864.00,28.34,-348.00,-230.00,-257.00
11,3692.00,6624.00,-13056.00,28.25,-345.00,-178.00,-30.00
12,3644.00,6676.00,-13084.00,28.25,-328.00,-222.00,-187.00
13,3664.00,6592.00,-12972.00,28.29,-319.00,-214.00,-157.00
14,3580.00,6596.00,-13064.00,28.34,-354.00,-204.00,-78.00
15,3712.00,6620.00,-13056.00,28.34,-338.00,-193.00,-150.00
16,3672.00,6596.00,-13096.00,28.34,-468.00,-241.00,-155.00
17,3540.00,6612.00,-12724.00,28.34,-300.00,-199.00,-159.00
18,3796.00,6656.00,-13156.00,28.39,-389.00,-174.00,-111.00
19,3468.00,6584.00,-12880.00,28.34,-329.00,-190.00,-206.00
20,3692.00,6644.00,-12840.00,28.29,-322.00,-184.00,-104.00
21,3568.00,6632.00,-13112.00,28.39,-353.00,-221.00,-192.00
22,3524.00,6452.00,-12964.00,28.34,-356.00,-228.00,-195.00
23,3752.00,6716.00,-13172.00,28.34,-305.00,-189.00,-161.00
24,3656.00,6496.00,-13116.00,28.29,-374.00,-224.00,-127.00
25,3548.00,6592.00,-13016.00,28.34,-327.00,-174.00,-133.00
26,3728.00,6744.00,-13104.00,28.25,-396.00,-168.00,-89.00
27,3720.00,6616.00,-13016.00,28.34,-447.00,-193.00,-259.00
28,3528.00,6640.00,-12968.00,28.39,-267.00,-209.00,-79.00
29,3696.00,6552.00,-13100.00,28.29,-437.00,-127.00,-104.00
30,3608.00,6688.00,-12972.00,28.34,-171.00,-109.00,-116.00
31,3608.00,6588.00,-13128.00,28.44,-308.00,-132.00,-113.00
32,3580.00,6640.00,-13132.00,28.29,-367.00,-176.00,-167.00
33,3620.00,6588.00,-13000.00,28.34,-298.00,-183.00,-99.00
34,3632.00,6588.00,-13064.00,28.44,-318.00,-138.00,-122.00
35,3572.00,6620.00,-13080.00,28.29,-411.00,-232.00,-78.00
36,3564.00,6692.00,-13056.00,28.29,-345.00,-177.00,-102.00
37,3544.00,6580.00,-12928.00,28.44,-404.00,-204.00,-116.00
38,3912.00,6760.00,-13180.00,28.34,-628.00,-163.00,-229.00
39,3404.00,6552.00,-12760.00,28.39,-430.00,-214.00,-511.00
40,3588.00,6572.00,-12944.00,28.44,-170.00,-189.00,175.00
41,3692.00,6548.00,-12928.00,28.34,-84.00,-148.00,-61.00
42,3800.00,6628.00,-13080.00,28.34,6.00,-228.00,163.00
43,3576.00,6492.00,-13192.00,28.29,-286.00,-73.00,-125.00
44,3756.00,6592.00,-13104.00,28.34,-251.00,-85.00,-200.00
45,3612.00,6552.00,-13060.00,28.34,-312.00,-154.00,-72.00
46,3636.00,6464.00,-12964.00,28.34,-237.00,-200.00,-33.00
47,3680.00,6468.00,-12972.00,28.29,-355.00,-168.00,-174.00
48,3632.00,6540.00,-13172.00,28.39,-159.00,-172.00,31.00
49,3580.00,6516.00,-13032.00,28.29,-380.00,-190.00,-201.00
50,3852.00,6580.00,-13176.00,28.25,-365.00,-152.00,-145.00
51,3624.00,5796.00,-12684.00,28.34,-375.00,-193.00,-95.00
52,3808.00,6516.00,-13012.00,28.44,-405.00,-219.00,-106.00
53,3876.00,6412.00,-13076.00,28.29,-275.00,-147.00,-17.00
54,3624.00,6464.00,-13052.00,28.39,-411.00,-141.00,-171.00
55,3688.00,6516.00,-13064.00,28.34,-368.00,-174.00,-104.00
56,3780.00,6548.00,-13136.00,28.44,-429.00,-147.00,-168.00
57,3660.00,6552.00,-12940.00,28.29,-350.00,-194.00,-78.00
58,3684.00,6532.00,-13200.00,28.39,-406.00,-169.00,-167.00
59,3648.00,6492.00,-12908.00,28.34,-393.00,-214.00,-122.00
60,3712.00,6508.00,-13132.00,28.34,-391.00,-155.00,-120.00
61,3588.00,6504.00,-13020.00,28.39,-461.00,-185.00,-176.00
62,3684.00,6500.00,-12996.00,28.34,-270.00,-157.00,-65.00
63,3852.00,6692.00,-12960.00,28.34,-484.00,-156.00,-224.00
64,3636.00,6496.00,-13164.00,28.34,-403.00,-189.00,-140.00
65,3640.00,6520.00,-13080.00,28.29,-413.00,-163.00,-103.00
66,3820.00,6680.00,-13080.00,28.20,-371.00,-173.00,-122.00
67,3612.00,6568.00,-12988.00,28.25,-408.00,-160.00,-142.00
68,3636.00,6644.00,-12928.00,28.29,-433.00,-183.00,-157.00
69,3712.00,6660.00,-13108.00,28.39,-452.00,-178.00,-144.00
70,3608.00,6596.00,-13088.00,28.34,-405.00,-190.00,-125.00
71,3636.00,6552.00,-13032.00,28.25,-376.00,-187.00,-178.00
72,3624.00,6532.00,-12864.00,28.39,-380.00,-159.00,-162.00
73,3712.00,6636.00,-13076.00,28.29,-361.00,-169.00,-122.00
74,3604.00,6604.00,-13092.00,28.44,-433.00,-198.00,-227.00
75,3540.00,6704.00,-12992.00,28.34,-353.00,-201.00,-130.00
76,3720.00,6724.00,-13136.00,28.29,-413.00,-150.00,-180.00
77,3616.00,6676.00,-12992.00,28.39,-349.00,-185.00,-190.00
78,3552.00,6628.00,-12852.00,28.34,-405.00,-196.00,-134.00
79,3616.00,6704.00,-12872.00,28.25,-287.00,-207.00,-163.00
80,3640.00,6660.00,-13040.00,28.39,-375.00,-222.00,-121.00
81,3684.00,6676.00,-13028.00,28.34,-339.00,-162.00,-80.00
82,3568.00,6612.00,-12988.00,28.34,-141.00,-104.00,-6.00
83,3620.00,6604.00,-12972.00,28.34,-123.00,-145.00,-10.00
84,3716.00,6652.00,-13104.00,28.34,-274.00,-173.00,-17.00
85,3724.00,6680.00,-13148.00,28.34,-250.00,-134.00,-105.00
86,3716.00,6652.00,-12968.00,28.29,-475.00,-207.00,-265.00
87,3588.00,6616.00,-13160.00,28.44,-326.00,-169.00,-58.00
88,3512.00,6516.00,-12860.00,28.34,-412.00,-161.00,-158.00
89,3788.00,6700.00,-13288.00,28.34,-326.00,-109.00,-147.00
90,3464.00,6640.00,-12872.00,28.29,-253.00,-177.00,-182.00
91,3676.00,6536.00,-13020.00,28.25,-208.00,-144.00,-123.00
92,3608.00,6612.00,-13160.00,28.34,-359.00,-194.00,-75.00
93,3560.00,6456.00,-13016.00,28.39,-188.00,-159.00,-157.00
94,3776.00,6556.00,-13080.00,28.20,-390.00,-159.00,-157.00
95,3644.00,6520.00,-13032.00,28.34,-371.00,-162.00,-123.00
96,3656.00,6604.00,-13016.00,28.25,-331.00,-171.00,-66.00
97,3720.00,6512.00,-13028.00,28.29,-362.00,-206.00,-162.00
98,3828.00,6620.00,-13076.00,28.34,-352.00,-195.00,-121.00
99,3584.00,6576.00,-13072.00,28.34,-422.00,-183.00,-149.00
100,3692.00,6584.00,-13132.00,28.29,-359.00,-158.00,-109.00
101,3740.00,6600.00,-12916.00,28.25,-429.00,-155.00,-120.00
102,3596.00,6532.00,-13136.00,28.39,-367.00,-169.00,-190.00
103,3688.00,6640.00,-13168.00,28.34,-406.00,-200.00,-137.00
104,3660.00,6592.00,-12976.00,28.39,-326.00,-174.00,-139.00
105,3552.00,6632.00,-13040.00,28.34,-487.00,-157.00,-188.00
106,3628.00,6696.00,-13036.00,28.29,-393.00,-147.00,-131.00
107,3564.00,6592.00,-13092.00,28.44,-469.00,-194.00,-251.00
108,3752.00,6720.00,-13016.00,28.29,-537.00,-187.00,-242.00
109,3612.00,6652.00,-13064.00,28.34,-231.00,-137.00,90.00
110,2896.00,11488.00,-13076.00,28.34,-1605.00,-1215.00,-1263.00
111,3356.00,6512.00,-12604.00,28.34,-133.00,-168.00,49.00
112,4016.00,7148.00,-13656.00,28.39,-444.00,-102.00,-277.00
113,3456.00,6572.00,-12548.00,28.34,-242.00,-245.00,-129.00
114,3740.00,6300.00,-12868.00,28.39,789.00,56.00,618.00
115,3888.00,6652.00,-13332.00,28.29,216.00,-96.00,164.00
116,3564.00,6504.00,-13244.00,28.25,-475.00,-234.00,-400.00
117,3528.00,6564.00,-13164.00,28.48,-454.00,-158.00,-173.00
118,3932.00,6696.00,-13168.00,28.34,-247.00,-162.00,-104.00
119,3792.00,6540.00,-13260.00,28.29,-369.00,-213.00,-206.00
120,3544.00,6556.00,-12972.00,28.34,-117.00,-59.00,9.00
121,3624.00,6516.00,-12752.00,28.44,-314.00,-98.00,-29.00
122,3852.00,6480.00,-12996.00,28.34,138.00,10.00,213.00
123,3752.00,6424.00,-13436.00,28.39,-251.00,-120.00,-180.00
124,3640.00,6484.00,-12980.00,28.34,-683.00,-234.00,-382.00
125,3628.00,6448.00,-12856.00,28.39,-88.00,-149.00,83.00
126,3852.00,6392.00,-13020.00,28.34,-68.00,-51.00,23.00
127,3904.00,6564.00,-13192.00,28.34,-473.00,39.00,-175.00
128,3304.00,6272.00,-12740.00,28.34,-562.00,-315.00,-327.00
129,3904.00,6516.00,-12932.00,28.39,363.00,42.00,335.00
130,3844.00,6400.00,-13836.00,28.34,16.00,-48.00,-81.00
131,3376.00,6220.00,-12496.00,28.34,147.00,-284.00,-284.00
132,4476.00,7316.00,-14504.00,28.39,-1251.00,40.00,-1529.00
133,4132.00,6064.00,-13988.00,28.39,4462.00,-2508.00,-2059.00
134,10924.00,7308.00,-17772.00,28.39,-4170.00,-3004.00,-5924.00
135,7456.00,8216.00,-13752.00,28.34,-4698.00,1004.00,151.00
136,4588.00,3664.00,-14452.00,28.25,11558.00,6068.00,-12453.00
137,3936.00,5244.00,-13212.00,28.34,-1966.00,6290.00,-21439.00
138,3900.00,2716.00,-14240.00,28.34,2167.00,12675.00,-18916.00
139,4060.00,4480.00,-16108.00,28.34,651.00,11814.00,-13287.00
140,4904.00,1504.00,-10872.00,28.34,-4110.00,12328.00,-10167.00
141,5004.00,1360.00,-8888.00,28.34,-1402.00,15578.00,-4021.00
142,4516.00,4324.00,-10620.00,28.34,-4853.00,10403.00,-6014.00
143,5864.00,7584.00,-13104.00,28.25,233.00,10348.00,-1377.00
144,6304.00,3588.00,-4852.00,28.29,64.00,6825.00,1305.00
145,9460.00,8604.00,-10212.00,28.29,7394.00,6561.00,-1082.00
146,8596.00,5944.00,-8504.00,28.34,3907.00,5879.00,2951.00
147,11996.00,9656.00,-12104.00,28.39,1399.00,8398.00,794.00
148,12240.00,7064.00,-6248.00,28.29,-1237.00,7733.00,4703.00
149,14204.00,8132.00,-9860.00,28.29,-3073.00,5974.00,4265.00
150,13104.00,5476.00,-6796.00,28.25,-5538.00,2403.00,5932.00
151,13088.00,6712.00,-7328.00,28.39,-6214.00,830.00,2564.00
152,14836.00,3908.00,-5288.00,28.34,-1701.00,-2202.00,-458.00
153,14068.00,5924.00,-9384.00,28.34,2200.00,-292.00,-1335.00
154,13124.00,4908.00,-7384.00,28.39,832.00,418.00,416.00
155,12652.00,6932.00,-7792.00,28.29,-6397.00,-2018.00,1032.00
156,14448.00,5308.00,-6524.00,28.29,-7820.00,-1229.00,1888.00
157,14180.00,5856.00,-4900.00,28.34,-6646.00,-1490.00,1835.00
158,13948.00,3560.00,-4424.00,28.44,-7549.00,-2641.00,1488.00
159,15644.00,5616.00,-3228.00,28.29,-148.00,351.00,3486.00
160,13852.00,6156.00,-4852.00,28.34,853.00,1213.00,-404.00
161,14020.00,6816.00,-5908.00,28.34,339.00,1277.00,-2217.00
162,14008.00,7024.00,-4928.00,28.29,400.00,313.00,-1927.00
163,14052.00,7676.00,-5724.00,28.34,676.00,594.00,-988.00
164,13532.00,6764.00,-5348.00,28.34,241.00,40.00,-330.00
165,14048.00,6664.00,-5336.00,28.29,207.00,803.00,3.00
166,13804.00,6232.00,-5480.00,28.44,537.00,798.00,842.00
167,13756.00,6192.00,-5484.00,28.34,-764.00,711.00,231.00
168,14000.00,6420.00,-4736.00,28.34,-218.00,691.00,181.00
169,14328.00,6508.00,-4688.00,28.34,-362.00,365.00,173.00
170,14216.00,6240.00,-4356.00,28.25,25.00,144.00,228.00
171,13904.00,6728.00,-4460.00,28.39,-346.00,-558.00,408.00
172,14052.00,6264.00,-5024.00,28.34,-607.00,-55.00,538.00
173,14176.00,6448.00,-5296.00,28.34,-625.00,211.00,125.00
174,14472.00,6424.00,-4336.00,28.39,-1456.00,-89.00,91.00
175,14328.00,6248.00,-4184.00,28.29,-624.00,-23.00,180.00
176,13872.00,7284.00,-4452.00,28.48,-1037.00,-646.00,-58.00
177,14208.00,6948.00,-4720.00,28.34,-1105.00,-244.00,1092.00
178,14440.00,6712.00,-4476.00,28.44,-1157.00,-414.00,912.00
179,14232.00,6264.00,-4356.00,28.34,-490.00,87.00,-445.00
180,14148.00,6848.00,-3056.00,28.39,-1172.00,-503.00,-336.00
181,14092.00,6544.00,-4592.00,28.34,486.00,136.00,27.00
182,14064.00,6480.00,-3956.00,28.34,-216.00,23.00,-465.00
183,14136.00,6464.00,-4300.00,28.34,-272.00,8.00,44.00
184,14348.00,6384.00,-4112.00,28.29,-659.00,51.00,-35.00
185,14300.00,6724.00,-4296.00,28.39,-567.00,-17.00,-118.00
186,13968.00,6840.00,-4192.00,28.29,-259.00,267.00,-285.00
187,14064.00,6744.00,-4144.00,28.34,-832.00,-209.00,80.00
188,14440.00,6760.00,-4308.00,28.34,28.00,166.00,78.00
189,14292.00,6692.00,-4144.00,28.29,-347.00,77.00,-136.00
190,14288.00,6720.00,-4224.00,28.29,-91.00,158.00,91.00
191,14168.00,6732.00,-3932.00,28.34,-411.00,-108.00,-27.00
192,14360.00,6860.00,-4204.00,28.29,-96.00,129.00,-267.00
193,14264.00,6728.00,-3776.00,28.39,-372.00,-60.00,-220.00
194,14116.00,6864.00,-4140.00,28.34,-202.00,122.00,-343.00
195,14296.00,6856.00,-4220.00,28.34,-190.00,161.00,-68.00
196,14312.00,6660.00,-3924.00,28.34,-355.00,-111.00,67.00
197,14336.00,6788.00,-4064.00,28.34,-207.00,-137.00,-127.00
198,14248.00,6816.00,-4048.00,28.29,-131.00,-166.00,-252.00
199,14440.00,6620.00,-4120.00,28.25,-206.00,-135.00,-497.00
200,14164.00,6776.00,-4148.00,28.29,-350.00,-164.00,-358.00
201,14132.00,6924.00,-4224.00,28.34,-153.00,31.00,-442.00
202,14172.00,6832.00,-3972.00,28.34,-372.00,-130.00,-323.00
203,14292.00,6764.00,-4072.00,28.39,-72.00,26.00,-589.00
204,14220.00,6460.00,-4092.00,28.39,-240.00,-202.00,-177.00
205,14356.00,6928.00,-4076.00,28.34,-265.00,-108.00,-359.00
206,14152.00,6924.00,-4124.00,28.39,-220.00,-94.00,-368.00
207,14332.00,6552.00,-4068.00,28.34,-172.00,-187.00,1139.00
208,14228.00,6764.00,-3852.00,28.34,-300.00,33.00,-329.00
209,14352.00,6688.00,-3740.00,28.39,-131.00,16.00,-353.00
210,14172.00,6876.00,-4080.00,28.29,-14.00,28.00,-180.00
211,14100.00,6928.00,-4136.00,28.39,-337.00,-106.00,-154.00
212,14136.00,6980.00,-4088.00,28.34,-446.00,-68.00,-156.00
213,14248.00,6888.00,-3824.00,28.34,-346.00,34.00,-85.00
214,14196.00,6812.00,-3920.00,28.39,-489.00,-192.00,-8.00
215,14324.00,6852.00,-3668.00,28.29,-205.00,-10.00,-138.00
216,14124.00,6868.00,-4060.00,28.34,-461.00,-84.00,-123.00
217,14356.00,6912.00,-3928.00,28.34,-559.00,0.00,-469.00
218,14328.00,6860.00,-3872.00,28.34,-634.00,-147.00,-10.00
219,14200.00,7044.00,-3680.00,28.29,-451.00,-201.00,312.00
220,14176.00,6796.00,-3852.00,28.29,-538.00,-138.00,-33.00
221,14208.00,6608.00,-3736.00,28.34,-697.00,-465.00,405.00
222,14516.00,6644.00,-3788.00,28.29,-1037.00,-741.00,586.00
223,14280.00,6948.00,-4228.00,28.34,-659.00,-210.00,391.00
224,14416.00,6896.00,-4152.00,28.34,-1024.00,-191.00,-429.00
225,14424.00,7072.00,-3972.00,28.34,-675.00,172.00,259.00
226,14492.00,6456.00,-3672.00,28.34,-457.00,199.00,72.00
227,14256.00,6652.00,-3808.00,28.34,-619.00,59.00,-631.00
228,14244.00,6900.00,-3736.00,28.25,-182.00,49.00,-315.00
229,14348.00,6892.00,-3580.00,28.44,-406.00,-280.00,-359.00
230,14300.00,6952.00,-3868.00,28.39,-315.00,-180.00,-357.00
231,14236.00,6780.00,-3740.00,28.34,-145.00,-341.00,-49.00
232,14224.00,6692.00,-3712.00,28.34,206.00,-627.00,331.00
233,14320.00,6848.00,-3904.00,28.29,-839.00,-414.00,333.00
234,14212.00,6840.00,-3824.00,28.20,-711.00,-124.00,707.00
235,14588.00,6868.00,-3440.00,28.25,-501.00,-239.00,302.00
236,14244.00,6236.00,-3628.00,28.34,-598.00,-540.00,239.00
237,14068.00,7116.00,-3912.00,28.39,-460.00,-453.00,-168.00
238,14368.00,6668.00,-4252.00,28.34,-325.00,57.00,439.00
239,14520.00,6624.00,-3616.00,28.34,-735.00,42.00,-189.00
240,14412.00,6428.00,-3772.00,28.34,-328.00,-31.00,-15.00
241,14552.00,6868.00,-3448.00,28.34,-367.00,-219.00,-62.00
242,14096.00,6596.00,-3636.00,28.39,-1.00,-550.00,-83.00
243,14512.00,6876.00,-4244.00,28.25,-34.00,-270.00,-148.00
244,14440.00,6528.00,-3812.00,28.39,719.00,151.00,-926.00
245,14212.00,6756.00,-3964.00,28.48,359.00,-237.00,-713.00
246,14288.00,6684.00,-3768.00,28.34,435.00,-146.00,-341.00
247,14236.00,6560.00,-3884.00,28.34,177.00,-217.00,-149.00
248,14172.00,6632.00,-4184.00,28.39,28.00,-8.00,30.00
249,14304.00,6840.00,-3852.00,28.29,-448.00,17.00,19.00
250,14344.00,6648.00,-3892.00,28.39,-67.00,79.00,90.00
251,14332.00,6744.00,-3996.00,28.34,-694.00,-460.00,47.00
252,14568.00,6700.00,-3992.00,28.25,36.00,4.00,159.00
253,14348.00,6788.00,-4256.00,28.34,-254.00,1.00,-260.00
254,14340.00,6524.00,-4032.00,28.34,-34.00,212.00,-417.00
255,14384.00,6608.00,-3748.00,28.34,-323.00,-120.00,-217.00
256,14404.00,6676.00,-3880.00,28.29,66.00,-93.00,-318.00
257,14352.00,6648.00,-4184.00,28.39,-43.00,-174.00,-101.00
258,14140.00,6700.00,-3916.00,28.34,-629.00,-247.00,-70.00
259,14280.00,6664.00,-4140.00,28.34,-528.00,-43.00,-8.00
260,14404.00,6588.00,-3852.00,28.25,-505.00,-28.00,-12.00
261,14468.00,6576.00,-3728.00,28.44,-514.00,-105.00,-144.00
262,14392.00,6444.00,-3788.00,28.29,-475.00,-192.00,-23.00
263,14256.00,6784.00,-3852.00,28.34,-535.00,-189.00,60.00
264,14400.00,6640.00,-4016.00,28.44,-509.00,-37.00,182.00
265,14536.00,6676.00,-3728.00,28.34,-733.00,-259.00,-112.00
266,14260.00,6924.00,-4008.00,28.34,-456.00,-169.00,-285.00
267,14468.00,6776.00,-3936.00,28.34,-455.00,-456.00,-122.00
268,14604.00,6616.00,-4048.00,28.39,-61.00,-287.00,-120.00
269,14360.00,6680.00,-3840.00,28.34,-266.00,-170.00,-382.00
270,14276.00,6752.00,-3932.00,28.29,-304.00,-38.00,-440.00
271,14308.00,6728.00,-3872.00,28.29,-462.00,-280.00,-274.00
272,14356.00,6908.00,-3808.00,28.44,-464.00,-272.00,-266.00
273,14276.00,6764.00,-4068.00,28.20,-395.00,-182.00,-229.00
274,14260.00,6976.00,-4044.00,28.34,-249.00,-126.00,-369.00
275,14324.00,6836.00,-3780.00,28.29,-287.00,-342.00,-234.00
276,14412.00,6680.00,-3768.00,28.39,-157.00,-209.00,-278.00
277,14180.00,6792.00,-3848.00,28.39,-352.00,-215.00,-201.00
278,14372.00,6824.00,-3888.00,28.34,-167.00,-46.00,9.00
279,14336.00,7480.00,-3884.00,28.34,528.00,718.00,-771.00
280,14452.00,6860.00,-4288.00,28.44,224.00,169.00,654.00
281,14428.00,6244.00,-3552.00,28.44,-640.00,-305.00,528.00
282,14548.00,6196.00,-3840.00,28.34,-649.00,-398.00,65.00
283,14372.00,6396.00,-3868.00,28.34,-455.00,-409.00,-161.00
284,14344.00,7044.00,-3924.00,28.39,-675.00,-398.00,-104.00
285,14304.00,6704.00,-3812.00,28.34,-346.00,-166.00,13.00
286,14072.00,6672.00,-4004.00,28.34,-424.00,-242.00,-326.00
287,14384.00,6480.00,-3804.00,28.29,-445.00,-224.00,-28.00
288,14720.00,6424.00,-4060.00,28.34,-551.00,-329.00,26.00
289,14364.00,6656.00,-4092.00,28.34,-211.00,-66.00,-94.00
290,14432.00,6616.00,-3780.00,28.34,-452.00,-205.00,-274.00
291,14488.00,6276.00,-3700.00,28.29,-430.00,-349.00,118.00
292,14528.00,6452.00,-4144.00,28.34,-410.00,-101.00,208.00
293,14480.00,6496.00,-3884.00,28.39,-633.00,-48.00,211.00
294,14480.00,6560.00,-3700.00,28.25,-714.00,-328.00,521.00
295,14532.00,6720.00,-4108.00,28.39,-215.00,-303.00,366.00
296,14468.00,6600.00,-4028.00,28.34,-247.00,-348.00,136.00
297,14324.00,6524.00,-3996.00,28.34,407.00,-236.00,-380.00
298,13924.00,6688.00,-4188.00,28.29,-103.00,-367.00,-130.00
299,14464.00,6276.00,-4084.00,28.34,-314.00,-388.00,-111.00
300,14492.00,6456.00,-4108.00,28.34,-496.00,-10.00,2.00
301,14304.00,6864.00,-4168.00,28.34,-645.00,9.00,178.00
302,14332.00,6616.00,-3904.00,28.29,-652.00,-273.00,89.00
303,14544.00,6224.00,-3924.00,28.39,-431.00,-305.00,-272.00
304,14324.00,6448.00,-3944.00,28.34,-207.00,-327.00,-261.00
305,14448.00,6680.00,-4168.00,28.34,-367.00,-403.00,-426.00
306,14320.00,6796.00,-4120.00,28.39,-344.00,-244.00,-636.00
307,14204.00,6672.00,-4076.00,28.39,-195.00,-533.00,-58.00
308,14232.00,6620.00,-4236.00,28.34,-350.00,-405.00,113.00
309,14376.00,6632.00,-4164.00,28.39,-657.00,-388.00,88.00
310,14212.00,6876.00,-4116.00,28.29,-1002.00,-355.00,77.00
311,14408.00,6664.00,-3936.00,28.34,-679.00,-343.00,-267.00
312,14232.00,6768.00,-4352.00,28.39,-647.00,-127.00,-255.00
313,14196.00,6728.00,-4288.00,28.34,-783.00,-259.00,60.00
314,14252.00,6624.00,-3992.00,28.34,-680.00,-223.00,-195.00
315,14252.00,6804.00,-4080.00,28.39,-413.00,-364.00,240.00
316,14536.00,6632.00,-4336.00,28.39,-336.00,-191.00,-76.00
317,14356.00,6592.00,-4240.00,28.34,-545.00,-181.00,72.00
318,14232.00,6736.00,-4040.00,28.34,-443.00,-121.00,90.00
319,14184.00,6888.00,-4164.00,28.34,-466.00,-272.00,-295.00
320,14384.00,6592.00,-4172.00,28.29,-249.00,-174.00,-104.00
321,14308.00,6732.00,-4384.00,28.34,-493.00,-246.00,-107.00
322,14364.00,6624.00,-4128.00,28.29,-142.00,-189.00,22.00
323,14340.00,6576.00,-4188.00,28.39,-148.00,-303.00,-180.00
324,14172.00,6636.00,-4320.00,28.25,-244.00,-110.00,23.00
325,14244.00,6704.00,-3996.00,28.34,-358.00,-86.00,-168.00
326,14076.00,6580.00,-4132.00,28.39,-92.00,-258.00,39.00
327,14224.00,6652.00,-4392.00,28.34,-229.00,-213.00,-309.00
328,14212.00,6676.00,-4060.00,28.29,-111.00,-114.00,-155.00
329,14288.00,6632.00,-4180.00,28.34,-225.00,-56.00,-357.00
330,14332.00,6860.00,-4316.00,28.29,-205.00,14.00,-234.00
331,14284.00,6608.00,-4252.00,28.39,-456.00,-63.00,-116.00
332,14232.00,6804.00,-4196.00,28.34,-505.00,48.00,-104.00
333,14308.00,6548.00,-3940.00,28.34,-287.00,76.00,101.00
334,14268.00,6536.00,-4008.00,28.34,-479.00,-23.00,-23.00
335,14368.00,6772.00,-4012.00,28.44,-677.00,-96.00,137.00
336,14644.00,6820.00,-4016.00,28.34,-558.00,-76.00,84.00
337,14400.00,6464.00,-4004.00,28.44,-409.00,34.00,151.00
338,14396.00,6492.00,-4140.00,28.34,-667.00,80.00,188.00
339,14420.00,6356.00,-3856.00,28.44,-177.00,154.00,-83.00
340,14332.00,6600.00,-3896.00,28.34,-568.00,-103.00,-360.00
341,14544.00,6492.00,-3848.00,28.44,439.00,342.00,-637.00
342,14552.00,6688.00,-3848.00,28.39,-226.00,217.00,-705.00
343,14240.00,7020.00,-4860.00,28.34,-1071.00,452.00,-625.00
344,14656.00,6808.00,-4580.00,28.39,-879.00,368.00,83.00
345,14772.00,6824.00,-3920.00,28.39,817.00,994.00,-485.00
346,14396.00,6412.00,-3360.00,28.39,376.00,170.00,-661.00
347,13516.00,5600.00,-3332.00,28.29,-100.00,-71.00,1223.00
348,14568.00,6516.00,-3340.00,28.34,-2115.00,359.00,-19.00
349,14516.00,8372.00,-3572.00,28.48,-1436.00,977.00,-1338.00
350,14240.00,7796.00,-2452.00,28.34,441.00,1899.00,-1108.00
351,14088.00,8096.00,-2224.00,28.29,1220.00,1506.00,-1148.00
352,14824.00,7032.00,-1764.00,28.34,2814.00,2069.00,279.00
353,15356.00,6576.00,-1972.00,28.34,52.00,428.00,-283.00
354,14676.00,6676.00,-2700.00,28.44,1043.00,816.00,-173.00
355,13996.00,6744.00,-3336.00,28.29,104.00,397.00,756.00
356,15492.00,6292.00,-2640.00,28.34,-112.00,732.00,240.00
357,14976.00,6928.00,-2348.00,28.34,728.00,818.00,122.00
358,14992.00,7472.00,-1748.00,28.44,-612.00,-508.00,5.00
359,14624.00,6956.00,-2400.00,28.34,269.00,-515.00,-110.00
360,14696.00,6224.00,-3032.00,28.29,-1146.00,-1369.00,354.00
361,14468.00,6544.00,-3336.00,28.44,-1502.00,-1862.00,159.00
362,14500.00,5892.00,-2900.00,28.44,-1031.00,-622.00,-55.00
363,15104.00,7116.00,-3272.00,28.34,-1728.00,-924.00,-895.00
364,14912.00,6716.00,-3120.00,28.34,359.00,222.00,-1413.00
365,14968.00,7096.00,-3064.00,28.39,-376.00,-481.00,-945.00
366,14740.00,7180.00,-2648.00,28.39,-16.00,6.00,-661.00
367,14232.00,7184.00,-2756.00,28.39,-1106.00,-761.00,179.00
368,14524.00,7060.00,-3084.00,28.44,315.00,-370.00,391.00
369,14812.00,6644.00,-3304.00,28.44,-419.00,-840.00,-86.00
370,14132.00,8316.00,-3016.00,28.39,-997.00,-1006.00,-568.00
371,14708.00,6652.00,-2984.00,28.44,-406.00,-697.00,406.00
372,14120.00,6512.00,-2852.00,28.34,2231.00,-38.00,1319.00
373,14956.00,7180.00,-4048.00,28.29,-999.00,-845.00,31.00
374,14288.00,6568.00,-3444.00,28.39,731.00,-161.00,313.00
375,14352.00,6804.00,-3288.00,28.34,-465.00,-1012.00,295.00
376,14960.00,6148.00,-4080.00,28.44,2.00,-519.00,170.00
377,14876.00,6552.00,-3916.00,28.44,-883.00,-291.00,-273.00
378,14572.00,6796.00,-3420.00,28.39,-874.00,-253.00,-439.00
379,14676.00,6532.00,-3760.00,28.34,-1040.00,-557.00,196.00
380,14668.00,6316.00,-3708.00,28.44,-234.00,-553.00,641.00
381,14452.00,6556.00,-3516.00,28.39,-367.00,-681.00,323.00
382,14536.00,6420.00,-3876.00,28.44,-453.00,-640.00,-22.00
383,14516.00,6712.00,-3680.00,28.44,-758.00,-445.00,-410.00
384,14520.00,6528.00,-3728.00,28.29,-428.00,-606.00,-195.00
385,14556.00,6396.00,-3764.00,28.44,-629.00,-560.00,-99.00
386,14500.00,6496.00,-3872.00,28.44,-783.00,-398.00,-386.00
387,14380.00,6588.00,-3516.00,28.25,-814.00,-472.00,-75.00
388,14212.00,6692.00,-3940.00,28.29,-678.00,-371.00,-239.00
389,14396.00,6724.00,-3696.00,28.48,-262.00,-354.00,-83.00
390,14464.00,6476.00,-3680.00,28.44,-505.00,-509.00,-78.00
391,14432.00,6640.00,-4080.00,28.34,-537.00,-528.00,81.00
392,14380.00,6600.00,-3784.00,28.34,-494.00,-159.00,-126.00
393,14124.00,6716.00,-4048.00,28.44,-819.00,-202.00,-263.00
394,14416.00,6600.00,-3820.00,28.34,-571.00,-162.00,59.00
395,14472.00,6620.00,-3816.00,28.39,-615.00,-159.00,-145.00
396,14504.00,6708.00,-3772.00,28.44,-415.00,-262.00,80.00
397,14332.00,6656.00,-4036.00,28.44,-598.00,-318.00,51.00
398,14308.00,6896.00,-4140.00,28.34,-412.00,-204.00,48.00
399,14332.00,6756.00,-4020.00,28.44,-385.00,-112.00,-253.00
400,14332.00,6616.00,-3780.00,28.39,-349.00,-245.00,-118.00
401,14536.00,6460.00,-3864.00,28.34,-38.00,-183.00,81.00
402,14396.00,6636.00,-3868.00,28.29,0.00,-47.00,-161.00
403,14348.00,6676.00,-4016.00,28.39,26.00,-18.00,-197.00
404,14468.00,6380.00,-3844.00,28.39,-251.00,-49.00,-13.00
405,14448.00,6688.00,-3844.00,28.29,-374.00,-103.00,-35.00
406,14500.00,6724.00,-3892.00,28.39,-96.00,46.00,-100.00
407,14408.00,6664.00,-3876.00,28.39,-325.00,15.00,-146.00
408,14660.00,6548.00,-3660.00,28.48,-179.00,140.00,-126.00
409,14528.00,6256.00,-3736.00,28.25,-116.00,-55.00,-141.00
410,14484.00,6488.00,-3872.00,28.44,-277.00,-355.00,97.00
411,14440.00,6536.00,-3868.00,28.44,-156.00,-185.00,-168.00
412,14532.00,6652.00,-4052.00,28.39,-464.00,-220.00,-155.00
413,14436.00,6712.00,-4048.00,28.34,-279.00,-141.00,-258.00
414,14424.00,6320.00,-3896.00,28.39,-212.00,-162.00,-92.00
415,14436.00,6504.00,-4008.00,28.34,-564.00,-257.00,-99.00
416,14432.00,6504.00,-3948.00,28.44,-105.00,-68.00,-97.00
417,14484.00,6368.00,-3760.00,28.34,-520.00,-205.00,-175.00
418,14428.00,6528.00,-3900.00,28.34,-511.00,-337.00,-68.00
419,14492.00,6312.00,-4068.00,28.34,-177.00,-139.00,-107.00
420,14516.00,6492.00,-3792.00,28.39,-521.00,-455.00,-86.00
421,14472.00,6616.00,-4116.00,28.53,-94.00,-220.00,-239.00
422,14368.00,6644.00,-4088.00,28.44,-538.00,-155.00,9.00
423,14440.00,6204.00,-4048.00,28.34,-435.00,-93.00,97.00
424,14504.00,6172.00,-3820.00,28.34,-449.00,-240.00,-23.00
425,14416.00,6536.00,-4048.00,28.44,-406.00,-324.00,-78.00
426,14556.00,6452.00,-3988.00,28.39,-65.00,-82.00,-277.00
427,14400.00,6448.00,-3996.00,28.48,-541.00,-444.00,-80.00
428,14416.00,6500.00,-4092.00,28.44,-516.00,-321.00,-46.00
429,14280.00,6428.00,-4252.00,28.34,-274.00,-116.00,-107.00
430,14512.00,6376.00,-4172.00,28.39,-629.00,-40.00,57.00
431,14308.00,6496.00,-3940.00,28.39,-505.00,65.00,-90.00
432,14468.00,6380.00,-3728.00,28.39,-292.00,-137.00,-31.00
433,14416.00,6284.00,-4068.00,28.44,-550.00,-253.00,-83.00
434,14472.00,6496.00,-4180.00,28.34,-375.00,-238.00,-200.00
435,14416.00,6500.00,-4028.00,28.39,-207.00,-334.00,-144.00
436,14540.00,6388.00,-3920.00,28.44,-175.00,-362.00,-63.00
437,14612.00,5912.00,-3808.00,28.39,326.00,-912.00,314.00
438,14448.00,6196.00,-3920.00,28.39,-592.00,-404.00,-90.00
439,14472.00,6448.00,-4332.00,28.44,-720.00,-391.00,55.00
440,14448.00,6524.00,-4224.00,28.44,-273.00,-230.00,132.00
441,14404.00,6100.00,-4156.00,28.48,-336.00,-91.00,279.00
442,14440.00,5960.00,-4116.00,28.39,-13.00,-116.00,-92.00
443,14544.00,6220.00,-4044.00,28.39,-269.00,-272.00,-113.00
444,14436.00,6244.00,-4184.00,28.34,-88.00,-301.00,-130.00
445,14452.00,6148.00,-4396.00,28.39,-179.00,-233.00,-178.00
446,14348.00,6296.00,-4364.00,28.44,-301.00,-107.00,-192.00
447,14352.00,6216.00,-4048.00,28.39,-85.00,-50.00,-251.00
448,14400.00,6256.00,-4180.00,28.39,-105.00,-176.00,-296.00
449,14340.00,6240.00,-4504.00,28.44,-192.00,-62.00,-414.00
450,14384.00,6264.00,-4116.00,28.44,-342.00,-22.00,-284.00
451,14572.00,6232.00,-3832.00,28.39,-574.00,-191.00,-313.00
452,14268.00,6316.00,-3884.00,28.44,-168.00,-221.00,-354.00
453,14488.00,6292.00,-4248.00,28.48,-396.00,-226.00,-256.00
454,14264.00,6136.00,-4328.00,28.44,-377.00,-46.00,8.00
455,14380.00,6300.00,-4216.00,28.34,-249.00,51.00,-95.00
456,14844.00,6272.00,-4156.00,28.48,-164.00,-113.00,-371.00
457,14288.00,6236.00,-4168.00,28.44,-129.00,-124.00,-124.00
458,14436.00,6264.00,-4224.00,28.48,-202.00,-133.00,-128.00
459,14508.00,6184.00,-4220.00,28.53,-2.00,64.00,-27.00
460,14364.00,6316.00,-3952.00,28.29,-36.00,-25.00,-192.00
461,14324.00,6332.00,-4108.00,28.39,-230.00,-55.00,-248.00
462,14428.00,6460.00,-4332.00,28.34,-511.00,-62.00,-134.00
463,14576.00,6380.00,-4000.00,28.53,-345.00,203.00,-66.00
464,14364.00,6308.00,-3824.00,28.48,-568.00,-122.00,-36.00
465,14480.00,6328.00,-4064.00,28.48,-242.00,-141.00,-57.00
466,14484.00,6232.00,-3940.00,28.44,-270.00,-207.00,-178.00
467,14352.00,6560.00,-4168.00,28.39,-372.00,-348.00,-119.00
468,14408.00,6524.00,-4308.00,28.44,-201.00,-117.00,-432.00
469,14596.00,6260.00,-4020.00,28.39,-328.00,-200.00,-187.00
470,14352.00,6312.00,-3980.00,28.44,-409.00,-304.00,-87.00
471,14396.00,6472.00,-4268.00,28.44,-444.00,-275.00,-41.00
472,14396.00,6396.00,-4024.00,28.48,-441.00,-293.00,-91.00
473,14432.00,6312.00,-4204.00,28.44,-491.00,-348.00,1.00
474,14480.00,6444.00,-4104.00,28.44,-697.00,-352.00,92.00
475,14488.00,6516.00,-4152.00,28.44,-431.00,98.00,173.00
476,14128.00,6448.00,-4092.00,28.44,-928.00,-293.00,152.00
477,14432.00,6660.00,-4308.00,28.44,-10.00,-265.00,93.00
478,14360.00,6324.00,-3996.00,28.44,-425.00,-631.00,358.00
479,14404.00,6276.00,-4248.00,28.48,-640.00,-439.00,133.00
480,14400.00,6232.00,-4428.00,28.44,-77.00,-513.00,107.00
481,14440.00,6236.00,-4260.00,28.44,-661.00,-379.00,157.00
482,14372.00,6104.00,-4252.00,28.44,-760.00,-286.00,180.00
483,14416.00,6188.00,-4352.00,28.48,-553.00,-495.00,-19.00
484,13956.00,6700.00,-4808.00,28.44,-137.00,-34.00,-683.00
485,14764.00,6892.00,-4372.00,28.53,39.00,-589.00,132.00
486,14348.00,6320.00,-4480.00,28.53,-185.00,-231.00,185.00
487,14556.00,6220.00,-4240.00,28.53,-468.00,-349.00,152.00
488,14536.00,6212.00,-4372.00,28.48,-474.00,-387.00,2.00
489,14340.00,6420.00,-4604.00,28.39,-186.00,-391.00,-181.00
490,14428.00,6184.00,-4624.00,28.44,-264.00,-310.00,-27.00
491,14300.00,6120.00,-4608.00,28.44,-355.00,-294.00,-54.00
492,14292.00,6340.00,-4560.00,28.58,-376.00,-361.00,-62.00
493,14392.00,6156.00,-4504.00,28.53,-270.00,-436.00,19.00
494,14308.00,6088.00,-4712.00,28.44,-561.00,-328.00,-27.00
495,14460.00,5992.00,-4744.00,28.44,-336.00,-506.00,49.00
496,14348.00,6220.00,-4668.00,28.48,-349.00,-512.00,52.00
497,14428.00,6044.00,-4672.00,28.44,-144.00,-339.00,-76.00
498,14344.00,5944.00,-4556.00,28.39,-665.00,-296.00,-194.00
499,14276.00,5964.00,-4492.00,28.53,-557.00,-217.00,-185.00
500,14380.00,6032.00,-4372.00,28.48,173.00,-265.00,-83.00
501,14188.00,6128.00,-4876.00,28.48,-264.00,-425.00,-214.00
502,14216.00,5996.00,-4784.00,28.44,-124.00,-143.00,-177.00
503,14284.00,6192.00,-4704.00,28.48,-446.00,-138.00,-271.00
504,14456.00,6124.00,-4900.00,28.44,643.00,-148.00,200.00
505,14352.00,5924.00,-4696.00,28.44,-31.00,-157.00,-251.00
506,14172.00,6172.00,-4812.00,28.58,-184.00,-231.00,-246.00
507,14188.00,6180.00,-4944.00,28.44,-278.00,-175.00,-114.00
508,14348.00,5964.00,-4552.00,28.48,-377.00,-64.00,-264.00
509,14328.00,5984.00,-4772.00,28.48,-474.00,-172.00,18.00
510,14200.00,6164.00,-4648.00,28.48,-423.00,-114.00,-153.00
511,14400.00,6164.00,-4768.00,28.44,-207.00,-117.00,-318.00
512,14368.00,5936.00,-4776.00,28.58,-68.00,-63.00,-263.00
513,14284.00,6256.00,-4908.00,28.39,-495.00,-239.00,12.00
514,14128.00,6172.00,-4772.00,28.39,-378.00,-71.00,-157.00
515,14316.00,6092.00,-4784.00,28.44,-286.00,-101.00,-85.00
516,14352.00,6044.00,-4844.00,28.48,-243.00,-136.00,-186.00
517,14152.00,6076.00,-5052.00,28.44,-346.00,-262.00,-40.00
518,14336.00,6092.00,-4864.00,28.53,-289.00,10.00,-70.00
519,14248.00,6136.00,-4612.00,28.44,-393.00,-83.00,-147.00
520,14316.00,5952.00,-4700.00,28.44,-304.00,-100.00,-82.00
521,14388.00,5920.00,-4808.00,28.48,-234.00,-16.00,-154.00
522,14192.00,5984.00,-4760.00,28.53,-109.00,70.00,57.00
523,14340.00,6036.00,-4616.00,28.48,-217.00,-43.00,61.00
524,14424.00,5804.00,-4664.00,28.53,-104.00,-63.00,55.00
525,14300.00,6036.00,-4768.00,28.48,-24.00,7.00,-89.00
526,14316.00,5924.00,-4844.00,28.53,-223.00,-70.00,-188.00
527,14440.00,6024.00,-4728.00,28.44,-83.00,85.00,-121.00
528,14348.00,5968.00,-4632.00,28.44,-238.00,-21.00,-190.00
529,14380.00,5876.00,-4656.00,28.39,-441.00,-131.00,-291.00
530,14340.00,6084.00,-4696.00,28.53,-78.00,-32.00,-203.00
531,14308.00,5896.00,-4812.00,28.53,-346.00,-30.00,-224.00
532,14340.00,5900.00,-4676.00,28.44,-36.00,24.00,-289.00
533,14500.00,6052.00,-4620.00,28.44,-242.00,-103.00,-276.00
534,14452.00,5840.00,-4908.00,28.39,-241.00,-75.00,-325.00
535,14300.00,6096.00,-4664.00,28.44,-312.00,60.00,-246.00
536,14404.00,6100.00,-4696.00,28.44,-441.00,51.00,-196.00
537,14356.00,6028.00,-4520.00,28.44,-346.00,-3.00,-127.00
538,14472.00,6156.00,-4484.00,28.53,-136.00,-81.00,-288.00
539,14392.00,6020.00,-4396.00,28.39,-70.00,-55.00,-352.00
540,14432.00,6100.00,-4712.00,28.39,19.00,-57.00,-378.00
541,14376.00,6016.00,-4456.00,28.48,-167.00,-36.00,-272.00
542,14332.00,6124.00,-4484.00,28.53,-205.00,45.00,-220.00
543,14472.00,6104.00,-4692.00,28.53,-235.00,122.00,-281.00
544,14352.00,6064.00,-4584.00,28.39,-464.00,69.00,-212.00
545,14340.00,6104.00,-4652.00,28.48,-367.00,94.00,-172.00
546,14488.00,6024.00,-4484.00,28.48,-190.00,87.00,-243.00
547,14396.00,6200.00,-4452.00,28.39,-240.00,80.00,-342.00
548,14328.00,6200.00,-4384.00,28.44,-206.00,119.00,-315.00
549,14376.00,6048.00,-4376.00,28.44,-230.00,8.00,-423.00
550,14460.00,6096.00,-4520.00,28.44,-257.00,149.00,-452.00
551,14644.00,5948.00,-4168.00,28.48,10.00,270.00,-667.00
552,14340.00,6220.00,-4180.00,28.44,-197.00,261.00,-650.00
553,14356.00,6576.00,-4352.00,28.34,-235.00,57.00,-397.00
554,14320.00,6516.00,-4480.00,28.44,-286.00,197.00,-200.00
555,14328.00,6376.00,-4156.00,28.48,-124.00,145.00,-326.00
556,14496.00,6396.00,-4164.00,28.48,-52.00,86.00,-350.00
557,14424.00,6380.00,-4064.00,28.39,-305.00,-14.00,-352.00
558,14312.00,6560.00,-4332.00,28.53,-318.00,-145.00,-251.00
559,14276.00,6536.00,-4192.00,28.48,-178.00,-38.00,-139.00
560,14512.00,6392.00,-4072.00,28.48,-307.00,-6.00,-159.00
561,14540.00,6364.00,-3996.00,28.48,-441.00,-86.00,-196.00
562,14352.00,6552.00,-4208.00,28.44,-703.00,-124.00,-177.00
563,14500.00,6588.00,-3988.00,28.39,-239.00,-44.00,-245.00
564,14300.00,6532.00,-4028.00,28.48,-113.00,-204.00,-137.00
565,14608.00,6232.00,-3860.00,28.44,-506.00,-622.00,-26.00
566,14408.00,6176.00,-3752.00,28.48,-208.00,-1282.00,-436.00
567,14148.00,6708.00,-4752.00,28.44,-267.00,-1008.00,-234.00
568,14340.00,6908.00,-5120.00,28.44,495.00,-317.00,-412.00
569,14240.00,6444.00,-4524.00,28.44,635.00,44.00,-432.00
570,14352.00,6484.00,-4184.00,28.53,-67.00,-10.00,-107.00
571,14136.00,6444.00,-4384.00,28.34,-74.00,-5.00,-161.00
572,14152.00,6536.00,-4720.00,28.44,-850.00,-101.00,-13.00
573,14236.00,6340.00,-4432.00,28.39,-365.00,216.00,-165.00
574,14328.00,6384.00,-4340.00,28.44,-65.00,411.00,-358.00
575,14288.00,6492.00,-4036.00,28.34,-228.00,218.00,-360.00
576,14328.00,6392.00,-4500.00,28.48,-85.00,275.00,-535.00
577,14336.00,6532.00,-4408.00,28.48,-200.00,338.00,-479.00
578,14300.00,6860.00,-4068.00,28.48,-181.00,230.00,-255.00
579,14252.00,6408.00,-4048.00,28.34,-28.00,175.00,-244.00
580,14252.00,6516.00,-4064.00,28.44,-245.00,-50.00,-232.00
581,14660.00,6268.00,-4256.00,28.48,1737.00,-1026.00,931.00
582,14176.00,6100.00,-4356.00,28.44,-765.00,505.00,-775.00
583,14284.00,6380.00,-4488.00,28.53,374.00,110.00,-661.00
584,14100.00,6184.00,-4384.00,28.48,-94.00,-37.00,-150.00
585,14388.00,6188.00,-4436.00,28.53,216.00,16.00,38.00
586,14624.00,6280.00,-4108.00,28.44,-168.00,-172.00,61.00
587,14300.00,6096.00,-4272.00,28.44,-160.00,-189.00,260.00
588,14436.00,6192.00,-4372.00,28.48,-595.00,-186.00,603.00
589,14540.00,5648.00,-4432.00,28.48,11.00,-311.00,48.00
590,14716.00,5856.00,-4048.00,28.48,-552.00,-305.00,-3.00
591,14408.00,5788.00,-4384.00,28.48,342.00,-222.00,-107.00
592,14428.00,5868.00,-4696.00,28.53,164.00,-272.00,-238.00
593,14556.00,5920.00,-4260.00,28.44,433.00,-333.00,-338.00
594,14308.00,6108.00,-4524.00,28.44,-91.00,-470.00,-46.00
595,14776.00,6144.00,-4404.00,28.48,51.00,-356.00,1.00
596,14328.00,5608.00,-4904.00,28.44,-207.00,-166.00,44.00
597,14140.00,5664.00,-4964.00,28.44,-668.00,-436.00,-26.00
598,14680.00,5968.00,-4728.00,28.34,16.00,-7.00,-147.00
599,14376.00,6136.00,-4480.00,28.53,126.00,-167.00,-56.00
600,14748.00,5648.00,-4408.00,28.53,582.00,-539.00,566.00
601,14600.00,5180.00,-4708.00,28.44,-197.00,-105.00,308.00
602,14540.00,5580.00,-4724.00,28.44,-717.00,-121.00,33.00
603,14432.00,5876.00,-4932.00,28.39,-212.00,-16.00,-290.00
604,14524.00,5904.00,-4492.00,28.53,-864.00,-241.00,179.00
605,14592.00,5996.00,-4732.00,28.44,-1144.00,-162.00,494.00
606,14448.00,5420.00,-4720.00,28.48,-624.00,-365.00,295.00
607,14672.00,5656.00,-4476.00,28.44,-1660.00,-695.00,322.00
608,14676.00,5368.00,-4796.00,28.62,-1083.00,-232.00,-273.00
609,14640.00,6232.00,-4600.00,28.44,-940.00,-326.00,-357.00
610,14268.00,5820.00,-4732.00,28.58,21.00,-238.00,-262.00
611,14328.00,6012.00,-4620.00,28.39,-756.00,-274.00,513.00
612,14508.00,5960.00,-4856.00,28.53,-334.00,-420.00,133.00
613,14916.00,5408.00,-4304.00,28.53,-140.00,-269.00,-194.00
614,14408.00,5660.00,-4308.00,28.58,-649.00,-479.00,38.00
615,14328.00,5688.00,-4804.00,28.48,-318.00,-428.00,71.00
616,14428.00,5816.00,-4880.00,28.48,276.00,-326.00,209.00
617,15152.00,5936.00,-4332.00,28.48,852.00,-719.00,211.00
618,14476.00,3512.00,-624.00,28.53,3656.00,-3381.00,559.00
619,16264.00,108.00,-80.00,28.53,14908.00,-1190.00,-2597.00
620,15072.00,7112.00,-6332.00,28.48,12212.00,-3720.00,-3751.00
621,14524.00,1924.00,-8020.00,28.58,8792.00,12417.00,-1071.00
622,13004.00,1604.00,-8452.00,28.48,7676.00,10331.00,-1288.00
623,12260.00,3152.00,-6140.00,28.53,-2576.00,5386.00,-26394.00
624,9276.00,6932.00,-8692.00,28.44,-679.00,3728.00,-10130.00
625,11052.00,8212.00,-10192.00,28.53,4430.00,-4374.00,4002.00
626,13252.00,6008.00,-6500.00,28.39,8899.00,-10419.00,-3842.00
627,12640.00,7504.00,-11012.00,28.44,19443.00,-7874.00,2127.00
628,14212.00,6920.00,-10460.00,28.44,5825.00,-14320.00,4760.00
629,10308.00,5132.00,-10548.00,28.44,2435.00,-12338.00,-1184.00
630,11316.00,7320.00,-15408.00,28.44,-3267.00,-2111.00,4249.00
631,9444.00,8764.00,-19060.00,28.53,-4030.00,-17852.00,-3778.00
632,9004.00,10380.00,-368.00,28.44,2408.00,-3833.00,2029.00
633,3976.00,11460.00,-18948.00,28.62,-16243.00,-7501.00,-8170.00
634,1184.00,4264.00,-15744.00,28.53,-10062.00,-9734.00,4580.00
635,820.00,9932.00,-14896.00,28.62,8419.00,-6536.00,4070.00
636,-560.00,5784.00,-13288.00,28.48,-4889.00,-13648.00,5601.00
637,-1240.00,7268.00,-10332.00,28.58,1719.00,-6197.00,2739.00
638,-1348.00,5952.00,-10816.00,28.48,-2097.00,-3426.00,8321.00
639,2040.00,8520.00,-12148.00,28.48,-3140.00,-3401.00,3880.00
640,3580.00,6884.00,-12336.00,28.58,-5794.00,-1985.00,3974.00
641,1400.00,7016.00,-8016.00,28.53,-2087.00,104.00,5188.00
642,3888.00,11040.00,-13816.00,28.58,-3403.00,1596.00,-4408.00
643,-516.00,6448.00,-7292.00,28.48,1278.00,3101.00,1962.00
644,2364.00,11056.00,-17984.00,28.48,-6129.00,-436.00,-5099.00
645,352.00,8292.00,-9944.00,28.48,936.00,2391.00,1655.00
646,2008.00,10800.00,-11568.00,28.58,-761.00,-1650.00,-3643.00
647,600.00,9512.00,-10144.00,28.58,-1555.00,-11.00,1093.00
648,1088.00,10960.00,-12520.00,28.58,-626.00,-944.00,-1095.00
649,680.00,9120.00,-11016.00,28.48,-217.00,58.00,-810.00
650,672.00,10784.00,-11468.00,28.44,-2199.00,-219.00,-1921.00
651,88.00,10172.00,-10392.00,28.53,-408.00,555.00,-53.00
652,992.00,10972.00,-10840.00,28.44,-418.00,513.00,-1032.00
653,1044.00,10496.00,-11400.00,28.48,-891.00,359.00,-781.00
654,1144.00,10832.00,-10804.00,28.48,-2426.00,2480.00,1711.00
655,1448.00,10628.00,-10636.00,28.58,-2741.00,1707.00,3075.00
656,2084.00,10636.00,-10136.00,28.48,-2852.00,2203.00,1318.00
657,2388.00,10640.00,-10052.00,28.62,-3004.00,1630.00,1778.00
658,2744.00,11152.00,-10084.00,28.53,-5165.00,1495.00,465.00
659,2832.00,12168.00,-9188.00,28.44,-2739.00,1706.00,609.00
660,3236.00,11592.00,-9348.00,28.48,703.00,182.00,48.00
661,3132.00,10904.00,-9592.00,28.44,3365.00,-1518.00,-2864.00
662,2504.00,11208.00,-9816.00,28.62,5904.00,-2403.00,-2751.00
663,1924.00,10500.00,-11120.00,28.62,5876.00,-1684.00,129.00
664,2160.00,10488.00,-10912.00,28.58,-2076.00,1108.00,1607.00
665,1776.00,10528.00,-10580.00,28.48,136.00,-650.00,-565.00
666,2284.00,10704.00,-11256.00,28.53,-868.00,427.00,583.00
667,2904.00,10504.00,-10232.00,28.53,-366.00,240.00,-172.00
668,2408.00,10184.00,-10916.00,28.48,-330.00,182.00,-455.00
669,2312.00,10320.00,-10600.00,28.48,-478.00,351.00,-741.00
670,2604.00,10532.00,-10996.00,28.53,-1052.00,484.00,-666.00
671,2412.00,10232.00,-10672.00,28.44,-1116.00,792.00,60.00
672,2728.00,10808.00,-10740.00,28.58,-1107.00,944.00,-157.00
673,2684.00,10792.00,-10288.00,28.58,-1003.00,1191.00,203.00
674,2900.00,10796.00,-10336.00,28.53,-893.00,964.00,-221.00
675,3064.00,11116.00,-10452.00,28.48,-957.00,931.00,-745.00
676,3068.00,10880.00,-10180.00,28.53,-628.00,762.00,-563.00
677,2844.00,10856.00,-9972.00,28.48,-805.00,648.00,-25.00
678,3096.00,10772.00,-9980.00,28.53,-736.00,313.00,-47.00
679,3160.00,11344.00,-10264.00,28.44,-551.00,204.00,-160.00
680,3092.00,11052.00,-9996.00,28.67,-544.00,136.00,-39.00
681,3288.00,11000.00,-9912.00,28.48,-454.00,111.00,83.00
682,3408.00,10824.00,-10000.00,28.48,-354.00,-61.00,65.00
683,3384.00,10720.00,-10092.00,28.48,-212.00,-142.00,-79.00
684,3552.00,11120.00,-10148.00,28.44,-122.00,-326.00,-441.00
685,3352.00,10972.00,-10092.00,28.53,53.00,-287.00,-419.00
686,3292.00,10712.00,-10296.00,28.44,-12.00,-280.00,-492.00
687,3088.00,10564.00,-9968.00,28.58,-124.00,-313.00,-178.00
688,3288.00,10588.00,-10300.00,28.44,-206.00,-276.00,3.00
689,3180.00,10908.00,-10032.00,28.53,-194.00,-322.00,-48.00
690,3220.00,11068.00,-10340.00,28.48,-320.00,-325.00,-110.00
691,3172.00,10848.00,-10392.00,28.53,-125.00,-200.00,-327.00
692,3196.00,10700.00,-10312.00,28.53,-240.00,-6.00,-54.00
693,3176.00,10912.00,-9908.00,28.53,-256.00,-160.00,84.00
694,3332.00,10784.00,-10068.00,28.44,-137.00,-326.00,-214.00
695,3092.00,10692.00,-10356.00,28.53,-2.00,-435.00,-593.00
696,3224.00,10772.00,-10340.00,28.62,29.00,-479.00,-578.00
697,2948.00,10992.00,-10472.00,28.53,-60.00,-337.00,-247.00
698,3088.00,10620.00,-10528.00,28.44,-430.00,-203.00,-88.00
699,2980.00,10968.00,-10524.00,28.58,-462.00,-171.00,-123.00
700,3048.00,10764.00,-10284.00,28.53,-510.00,96.00,157.00
701,3016.00,11000.00,-10364.00,28.53,-300.00,-86.00,-19.00
702,3100.00,10736.00,-10400.00,28.48,-526.00,35.00,87.00
703,3120.00,10832.00,-10244.00,28.44,-330.00,26.00,344.00
704,3116.00,10760.00,-10504.00,28.58,-619.00,77.00,607.00
705,3092.00,10672.00,-9996.00,28.48,-839.00,-16.00,690.00
706,3372.00,10644.00,-10216.00,28.58,-278.00,-135.00,444.00
707,3228.00,10828.00,-9988.00,28.53,-530.00,-17.00,386.00
708,3356.00,10924.00,-10024.00,28.53,-376.00,-288.00,194.00
709,3392.00,10808.00,-10080.00,28.53,-439.00,-157.00,334.00
710,3432.00,10680.00,-9936.00,28.58,-263.00,-167.00,229.00
711,3640.00,10892.00,-10460.00,28.48,-504.00,3.00,223.00
712,3628.00,10824.00,-9800.00,28.48,-393.00,59.00,143.00
713,3356.00,10752.00,-10060.00,28.39,-183.00,-506.00,-144.00
714,3276.00,10576.00,-10084.00,28.53,-96.00,-293.00,-327.00
715,3688.00,10900.00,-10288.00,28.58,-260.00,-224.00,-238.00
716,3440.00,10572.00,-10308.00,28.58,-313.00,-149.00,-39.00
717,3528.00,10652.00,-10068.00,28.62,-320.00,-130.00,18.00
718,3504.00,10652.00,-9944.00,28.44,-308.00,-164.00,-157.00
719,3392.00,10628.00,-10132.00,28.53,-118.00,-384.00,-201.00
720,3572.00,10524.00,-10308.00,28.58,-395.00,-359.00,100.00
721,3600.00,10744.00,-10468.00,28.44,3.00,-386.00,-418.00
722,3288.00,10848.00,-10476.00,28.62,-11.00,-369.00,-604.00
723,3532.00,10944.00,-10472.00,28.58,-203.00,-260.00,-301.00
724,3108.00,10672.00,-10164.00,28.62,-253.00,-469.00,-203.00
725,3568.00,10700.00,-10408.00,28.53,-226.00,-372.00,-354.00
726,3276.00,10564.00,-10376.00,28.58,62.00,-482.00,-811.00
727,3400.00,10728.00,-10700.00,28.62,140.00,-420.00,-1065.00
728,2928.00,11028.00,-11048.00,28.58,301.00,-833.00,-868.00
729,2932.00,10332.00,-10272.00,28.53,308.00,-393.00,171.00
730,2908.00,10312.00,-10824.00,28.53,334.00,-912.00,-968.00
731,2244.00,10256.00,-10632.00,28.48,447.00,-933.00,-513.00
732,2348.00,9728.00,-10556.00,28.53,530.00,-798.00,283.00
733,3084.00,10488.00,-11284.00,28.48,-32.00,-664.00,-270.00
734,2104.00,10240.00,-10928.00,28.53,-234.00,-1237.00,-773.00
735,2548.00,10128.00,-10784.00,28.48,448.00,-684.00,-438.00
736,2428.00,10376.00,-11416.00,28.62,428.00,-777.00,-729.00
737,1836.00,10524.00,-11268.00,28.48,85.00,-896.00,-326.00
738,2024.00,9940.00,-11068.00,28.58,312.00,-739.00,57.00
739,1984.00,10212.00,-11336.00,28.48,-109.00,-394.00,64.00
740,2004.00,9996.00,-11184.00,28.62,-94.00,-511.00,270.00
741,2020.00,9816.00,-11476.00,28.53,-407.00,-395.00,243.00
742,1988.00,10004.00,-11280.00,28.53,-86.00,-494.00,-103.00
743,2100.00,9780.00,-11320.00,28.58,-260.00,-211.00,57.00
744,2108.00,9920.00,-11340.00,28.48,-412.00,-161.00,165.00
745,2000.00,9776.00,-11356.00,28.53,-503.00,-128.00,148.00
746,2120.00,9744.00,-11304.00,28.53,-544.00,-88.00,223.00
747,2140.00,9896.00,-11336.00,28.62,-486.00,-99.00,160.00
748,2112.00,9960.00,-11068.00,28.62,-593.00,-30.00,238.00
749,2216.00,9744.00,-11232.00,28.39,-510.00,-54.00,96.00
750,2100.00,9976.00,-11256.00,28.62,-451.00,-23.00,-1.00
751,2256.00,9936.00,-11068.00,28.62,-505.00,48.00,-19.00
752,2160.00,9892.00,-11172.00,28.53,-435.00,-18.00,-131.00
753,2192.00,9860.00,-11076.00,28.62,-416.00,-40.00,-85.00
754,2300.00,9868.00,-11084.00,28.48,-489.00,-164.00,-232.00
755,2196.00,9832.00,-11080.00,28.48,-394.00,-119.00,-5.00
756,2252.00,9792.00,-10900.00,28.53,-435.00,-31.00,71.00
757,2332.00,10116.00,-11148.00,28.58,-294.00,-37.00,-37.00
758,2196.00,10080.00,-11284.00,28.62,-506.00,-47.00,8.00
759,2216.00,9968.00,-11024.00,28.53,-327.00,-112.00,-100.00
760,2476.00,9964.00,-11296.00,28.62,-278.00,-172.00,-163.00
761,2204.00,10032.00,-11324.00,28.48,-292.00,-174.00,-340.00
762,2396.00,10060.00,-11088.00,28.58,-360.00,-255.00,-315.00
763,2368.00,10080.00,-11264.00,28.53,-398.00,-205.00,-215.00
764,2264.00,10124.00,-11264.00,28.58,-246.00,-158.00,-108.00
765,2352.00,9940.00,-11136.00,28.58,-351.00,-149.00,-208.00
766,2344.00,9928.00,-11264.00,28.53,-254.00,-189.00,-228.00
767,2248.00,9992.00,-11172.00,28.48,-395.00,-119.00,-116.00
768,2192.00,9984.00,-11172.00,28.44,-269.00,-123.00,-111.00
769,2316.00,9992.00,-11228.00,28.62,-315.00,-224.00,-180.00
770,2236.00,10012.00,-11120.00,28.62,-394.00,-99.00,-152.00
771,2300.00,9956.00,-11160.00,28.48,-285.00,-204.00,-217.00
772,2248.00,10052.00,-11152.00,28.48,-380.00,-149.00,-62.00
773,2300.00,9856.00,-11052.00,28.53,-30
Sample,aX,aY,az,Temp,gX,gY,gz