86.60,-714.00,-65.00,-9.00,423.00                                               
2416,3312.00,7020.00,-14020.00,26.60,-581.00,-343.00,-536.00                    
2417,2540.00,6052.00,-12772.00,26.60,-714.00,-643.00-517?                       
Sample,aX,aY,az,Temp,gX,gY,gz                                                   
1,2392.00,6832.00,-12848.00,26.60,-494.00,-312.00,-60.00                        
2,2660.00,7116.00,-12944.00,26.65,-183.00,-98.00,-90.00                         
3,2452.00,7344.00,-13016.00,26.69,-707.00,-233.00,203.00                        
4,2464.00,7300.00,-13008.00,26.65,-541.00,-167.00,9.00                          
5,2528.00,7160.00,-12844.00,26.55,-64.00,-174.00,-524.00                        
6,2684.00,7792.00,-12972.00,26.55,-322.00,-99.00,13.00                          
7,2720.00,7252.00,-13020.00,26.65,-213.00,28.00,-22.00                          
8,2688.00,7240.00,-13236.00,26.65,-854.00,-193.00,-273.00                       
9,2692.00,7364.00,-12940.00,26.65,-1390.00,-377.00,60.00                        
10,2700.00,7460.00,-12520.00,26.55,-680.00,-13.00,-156.00                       
11,2672.00,7360.00,-12480.00,26.65,-416.00,-93.00,-165.00                       
12,2904.00,7476.00,-12672.00,26.65,-76.00,99.00,40.00                           
13,2688.00,7436.00,-12884.00,26.65,746.00,561.00,563.00                         
                                                                                
                                                                                
                                                                                
                                                                                
                                                                                
                                                                                
                                                                                

14,2928.00,7476.00,-13144.00,26.65,124.00,141.00,-42.00
15,2828.00,7116.00,-13060.00,26.69,-568.00,-175.00,-176.00
16,3044.00,7376.00,-12804.00,26.69,-661.00,-273.00,-358.00
17,2840.00,7396.00,-12756.00,26.60,-390.00,-153.00,-174.00
18,2552.00,7420.00,-12820.00,26.60,30.00,-76.00,-244.00
19,2688.00,7220.00,-12736.00,26.65,231.00,109.00,-99.00
20,3232.00,7344.00,-13172.00,26.55,-176.00,17.00,-29.00
21,2972.00,7252.00,-13116.00,26.69,-872.00,-353.00,-184.00
22,2720.00,7228.00,-12888.00,26.69,-227.00,-378.00,-550.00
23,2856.00,7172.00,-12640.00,26.60,198.00,1.00,-441.00
24,2936.00,7320.00,-12856.00,26.69,415.00,252.00,152.00
25,2940.00,7164.00,-13236.00,26.55,-65.00,24.00,-72.00
26,2908.00,6812.00,-12984.00,26.55,-357.00,-316.00,-417.00
27,2916.00,7176.00,-13060.00,26.65,-298.00,-150.00,-180.00
28,2760.00,7156.00,-13140.00,26.74,-25.00,-18.00,35.00
29,2932.00,7084.00,-13128.00,26.74,-71.00,-150.00,-265.00
30,3024.00,6840.00,-13012.00,26.69,-340.00,-289.00,-345.00
31,2884.00,7084.00,-13224.00,26.60,-585.00,-421.00,-334.00
32,2756.00,6908.00,-12864.00,26.60,-368.00,-252.00,-366.00
33,2744.00,6932.00,-13024.00,26.69,-551.00,-170.00,-187.00
34,2832.00,7192.00,-12808.00,26.69,-659.00,-162.00,-11.00
35,2944.00,7136.00,-12756.00,26.65,-389.00,-52.00,-132.00
36,2960.00,7292.00,-12820.00,26.65,-232.00,43.00,-61.00
37,3016.00,7196.00,-12664.00,26.65,79.00,79.00,-41.00
38,3072.00,7132.00,-12936.00,26.74,241.00,246.00,262.00
39,3216.00,7016.00,-12844.00,26.69,-54.00,72.00,137.00
40,3048.00,7016.00,-13056.00,26.69,-336.00,-254.00,-351.00
41,2896.00,6936.00,-12940.00,26.69,-194.00,-124.00,-183.00
42,2904.00,6960.00,-12796.00,26.60,-47.00,-27.00,48.00
43,3064.00,6988.00,-12976.00,26.69,-37.00,-114.00,-168.00
44,3140.00,6952.00,-13060.00,26.74,-205.00,2.00,73.00
45,3228.00,6920.00,-13160.00,26.69,-298.00,-81.00,-68.00
46,3148.00,6848.00,-13152.00,26.65,-301.00,-197.00,-163.00
47,3240.00,6856.00,-13124.00,26.65,-449.00,-305.00,-310.00
48,3068.00,6900.00,-12872.00,26.79,-310.00,-242.00,-340.00
49,3208.00,6832.00,-12928.00,26.69,-37.00,68.00,50.00
50,3004.00,6900.00,-13092.00,26.69,127.00,124.00,269.00
51,3228.00,6804.00,-13184.00,26.65,297.00,110.00,153.00
52,3300.00,6768.00,-13392.00,26.65,-253.00,-97.00,-134.00
53,3268.00,6740.00,-13192.00,26.74,-1146.00,-394.00,-186.00
54,3164.00,6900.00,-13128.00,26.65,-1144.00,-261.00,-24.00
55,3060.00,6888.00,-12812.00,26.65,-914.00,-331.00,-357.00
56,3164.00,6768.00,-12520.00,26.74,-309.00,-55.00,-105.00
57,3252.00,6904.00,-12992.00,26.69,712.00,583.00,168.00
58,3292.00,6804.00,-13280.00,26.74,-178.00,8.00,90.00
59,3348.00,6912.00,-13372.00,26.84,-795.00,-777.00,-408.00
60,3244.00,6832.00,-12960.00,26.65,-1087.00,-600.00,-470.00
61,3108.00,6872.00,-12792.00,26.74,-1137.00,-190.00,107.00
62,3024.00,2848.00,-12608.00,26.74,88.00,-314.00,88.00
63,3092.00,7020.00,-12880.00,26.74,-480.00,-298.00,-257.00
64,3516.00,7048.00,-12796.00,26.74,447.00,-104.00,-336.00
65,3260.00,6964.00,-13164.00,26.74,84.00,-108.00,-23.00
66,2688.00,7776.00,-13520.00,26.74,-1134.00,-579.00,-574.00
67,3196.00,6880.00,-12952.00,26.79,-517.00,-302.00,-361.00
68,3000.00,7032.00,-13008.00,26.74,-462.00,-93.00,295.00
69,2840.00,6924.00,-12596.00,26.65,-112.00,123.00,170.00
70,3352.00,7008.00,-13184.00,26.69,241.00,108.00,282.00
71,3092.00,6860.00,-12780.00,26.69,591.00,180.00,524.00
72,3748.00,6812.00,-13208.00,26.65,270.00,-34.00,502.00
73,3416.00,6668.00,-12712.00,26.84,-306.00,-250.00,237.00
74,3968.00,6672.00,-13344.00,26.74,-254.00,-583.00,-300.00
75,3748.00,6756.00,-13276.00,26.74,-860.00,-842.00,-466.00
76,3060.00,6044.00,-13056.00,26.74,-371.00,-323.00,-23.00
77,3160.00,6728.00,-13364.00,26.79,-684.00,-372.00,9.00
78,3028.00,6744.00,-12836.00,26.74,-1774.00,-568.00,564.00
79,3032.00,6604.00,-12156.00,26.74,-918.00,-42.00,1007.00
80,3556.00,7156.00,-12508.00,26.69,207.00,107.00,355.00
81,3272.00,6848.00,-13224.00,26.74,737.00,-539.00,-1083.00
82,3216.00,6488.00,-13060.00,26.69,-577.00,-777.00,-1310.00
83,3136.00,7024.00,-13376.00,26.74,-1485.00,-792.00,-398.00
84,2764.00,7084.00,-13036.00,26.74,-1437.00,-568.00,-625.00
85,2820.00,7032.00,-12568.00,26.84,-883.00,-385.00,-39.00
86,2848.00,7100.00,-12812.00,26.74,-120.00,-216.00,-252.00
87,3288.00,7352.00,-13064.00,26.74,187.00,-186.00,-467.00
88,2708.00,7604.00,-13184.00,26.79,-1169.00,-398.00,-419.00
89,2720.00,7204.00,-13232.00,26.79,-349.00,-221.00,264.00
90,2536.00,7284.00,-12612.00,26.79,-1331.00,-667.00,-801.00
91,2804.00,7564.00,-12592.00,26.79,-709.00,-263.00,110.00
92,2420.00,7664.00,-12716.00,26.79,-530.00,-300.00,130.00
93,2284.00,7000.00,-12636.00,26.65,-81.00,-176.00,336.00
94,2908.00,7652.00,-12900.00,26.79,-268.00,-224.00,495.00
95,2692.00,7608.00,-12888.00,26.79,-1680.00,-671.00,86.00
96,2656.00,7760.00,-12724.00,26.84,-1761.00,-497.00,32.00
97,2532.00,7292.00,-12148.00,26.74,166.00,-329.00,115.00
98,2432.00,7440.00,-12776.00,26.79,-484.00,-349.00,365.00
99,2700.00,7788.00,-12784.00,26.74,-659.00,-454.00,12.00
100,2504.00,7620.00,-12344.00,26.79,133.00,-121.00,234.00
101,2404.00,7672.00,-12832.00,26.88,-390.00,378.00,840.00
102,2804.00,7512.00,-13128.00,26.84,-820.00,8.00,629.00
103,2792.00,7932.00,-12560.00,26.79,-1062.00,-229.00,610.00
104,2856.00,7932.00,-12524.00,26.79,-749.00,-494.00,69.00
105,2852.00,7848.00,-12568.00,26.79,-455.00,-430.00,-558.00
106,2928.00,8296.00,-12652.00,26.79,-1296.00,-324.00,-500.00
107,2684.00,7696.00,-12488.00,26.88,-215.00,-28.00,-335.00
108,2452.00,7620.00,-12540.00,26.79,-451.00,-362.00,-172.00
109,2400.00,7848.00,-12452.00,26.74,-509.00,-187.00,-121.00
110,2516.00,7868.00,-12264.00,26.84,-288.00,17.00,286.00
111,2592.00,7896.00,-12568.00,26.79,-268.00,2.00,294.00
112,2644.00,8036.00,-12744.00,26.93,-194.00,39.00,147.00
113,2588.00,7812.00,-12540.00,26.79,-512.00,-183.00,-131.00
114,2704.00,7868.00,-12420.00,26.88,-141.00,-105.00,-135.00
115,2744.00,7852.00,-12684.00,26.88,242.00,-62.00,-157.00
116,2812.00,7788.00,-12828.00,26.79,-207.00,-33.00,98.00
117,2712.00,7868.00,-12648.00,26.74,-515.00,-213.00,-152.00
118,2788.00,7780.00,-12476.00,26.74,-172.00,-259.00,-246.00
119,2676.00,7900.00,-12680.00,26.84,-123.00,-155.00,-359.00
120,2580.00,7824.00,-12612.00,26.93,-298.00,-83.00,-31.00
121,2676.00,7804.00,-12620.00,26.84,-342.00,-82.00,27.00
122,2660.00,7880.00,-12640.00,26.79,-469.00,-159.00,116.00
123,2708.00,7268.00,-12596.00,26.79,-571.00,-122.00,343.00
124,2944.00,8384.00,-12672.00,26.88,-174.00,103.00,290.00
125,2712.00,7700.00,-12716.00,26.79,-165.00,-260.00,-147.00
126,2948.00,7724.00,-12616.00,26.88,-326.00,-65.00,-102.00
127,2584.00,7768.00,-12468.00,26.79,-872.00,16.00,-43.00
128,2888.00,7860.00,-12696.00,26.93,-1218.00,-70.00,-7.00
129,2932.00,7920.00,-12396.00,26.79,-682.00,-222.00,-320.00
130,2852.00,7976.00,-12440.00,26.93,-346.00,101.00,-2.00
131,2952.00,7884.00,-12648.00,26.84,-545.00,32.00,95.00
132,3004.00,7772.00,-12524.00,26.88,-184.00,59.00,69.00
133,2856.00,7928.00,-12540.00,26.84,-403.00,104.00,142.00
134,3132.00,8348.00,-12560.00,26.84,368.00,113.00,25.00
135,2788.00,8004.00,-12536.00,26.88,-163.00,-298.00,-52.00
136,3096.00,7916.00,-12924.00,26.79,-235.00,-374.00,-255.00
137,2864.00,7832.00,-12372.00,26.84,-631.00,-544.00,-317.00
138,2812.00,7956.00,-12436.00,26.79,-522.00,-121.00,-35.00
139,2972.00,7856.00,-12504.00,26.79,-480.00,-11.00,-62.00
140,2864.00,7800.00,-12220.00,26.88,331.00,-11.00,-2.00
141,3276.00,7804.00,-12676.00,26.93,51.00,-3.00,289.00
142,3224.00,7824.00,-12900.00,26.93,-816.00,-523.00,-738.00
143,2952.00,8320.00,-12584.00,26.93,-1115.00,-493.00,-462.00
144,2612.00,7996.00,-12648.00,26.88,-563.00,-563.00,-688.00
145,3024.00,8372.00,-12604.00,26.79,-1289.00,-511.00,-360.00
146,2460.00,7944.00,-12060.00,26.84,-345.00,-270.00,21.00
147,2716.00,7456.00,-12112.00,26.88,-615.00,-258.00,-237.00
148,3268.00,8252.00,-12604.00,26.84,614.00,477.00,-33.00
149,2412.00,7048.00,-12228.00,26.79,-514.00,-10.00,-436.00
150,3080.00,8256.00,-12856.00,26.84,-159.00,-603.00,-623.00
151,2692.00,7568.00,-12756.00,26.88,-181.00,-186.00,-538.00
152,2516.00,7908.00,-12448.00,26.88,-349.00,-205.00,-650.00
153,2768.00,7768.00,-12032.00,26.88,189.00,70.00,-363.00
154,2792.00,8000.00,-12648.00,26.84,469.00,93.00,-158.00
155,2788.00,8104.00,-12712.00,26.93,40.00,-73.00,-450.00
156,3012.00,7972.00,-13276.00,26.88,-713.00,-230.00,-774.00
157,2408.00,8028.00,-12500.00,26.88,-669.00,-300.00,-727.00
158,2620.00,8012.00,-12224.00,26.88,-378.00,-87.00,-370.00
159,2704.00,7516.00,-12276.00,26.88,82.00,119.00,-196.00
160,2780.00,7844.00,-12724.00,26.93,84.00,121.00,24.00
161,2740.00,7800.00,-12760.00,26.88,-259.00,111.00,285.00
162,2656.00,7824.00,-12872.00,26.84,-879.00,-338.00,-377.00
163,3016.00,7948.00,-12776.00,26.88,-898.00,-202.00,-380.00
164,2832.00,8032.00,-12556.00,26.88,-1125.00,-398.00,-694.00
165,2784.00,7588.00,-11300.00,26.84,-985.00,-466.00,-557.00
166,2968.00,8140.00,-11872.00,26.93,-1125.00,38.00,355.00
167,1408.00,8180.00,-12316.00,26.84,-707.00,348.00,1128.00
168,2124.00,8752.00,-12248.00,26.93,-122.00,231.00,24.00
169,2876.00,7552.00,-12556.00,26.88,769.00,257.00,333.00
170,2240.00,7216.00,-12832.00,26.84,-884.00,-174.00,-414.00
171,2828.00,8196.00,-12524.00,26.93,335.00,206.00,-458.00
172,2732.00,7944.00,-12576.00,26.93,-35.00,-33.00,-301.00
173,2972.00,8060.00,-12604.00,27.02,-511.00,-283.00,-114.00
174,2728.00,8296.00,-12344.00,26.93,288.00,49.00,-171.00
175,3060.00,7580.00,-12224.00,27.07,615.00,16.00,-250.00
176,2552.00,7088.00,-12532.00,26.93,251.00,-561.00,-96.00
177,3444.00,7900.00,-12448.00,26.93,1459.00,-29.00,-464.00
178,2928.00,7520.00,-13168.00,26.93,1106.00,-347.00,593.00
179,3388.00,7448.00,-12788.00,27.02,1289.00,-472.00,566.00
180,2984.00,6876.00,-12968.00,26.84,1703.00,-198.00,54.00
181,3076.00,6896.00,-13212.00,26.93,877.00,-460.00,34.00
182,3260.00,7196.00,-13312.00,26.98,-403.00,-544.00,81.00
183,2652.00,6136.00,-12992.00,26.98,1587.00,-795.00,203.00
184,3040.00,6792.00,-13396.00,26.93,919.00,-414.00,279.00
185,3092.00,5816.00,-13380.00,26.93,435.00,-624.00,228.00
186,2808.00,6080.00,-13128.00,26.93,137.00,-432.00,367.00
187,2224.00,5688.00,-13224.00,26.93,69.00,-152.00,314.00
188,2888.00,6264.00,-13212.00,26.98,740.00,101.00,586.00
189,2816.00,5716.00,-13640.00,26.93,-105.00,143.00,365.00
190,3244.00,5640.00,-13660.00,26.93,-234.00,-102.00,177.00
191,3096.00,6088.00,-13648.00,27.02,-864.00,-257.00,-163.00
192,2820.00,5892.00,-13612.00,26.93,-433.00,-376.00,-87.00
193,2996.00,5996.00,-13480.00,26.93,-828.00,-411.00,-209.00
194,2548.00,6036.00,-13172.00,26.93,-823.00,-274.00,-36.00
195,3060.00,6096.00,-13256.00,26.84,-437.00,-112.00,25.00
196,2736.00,6044.00,-13376.00,26.88,-417.00,-195.00,126.00
197,2716.00,6012.00,-13388.00,26.88,-400.00,-143.00,85.00
198,3056.00,6316.00,-13432.00,26.93,-290.00,-336.00,30.00
199,2916.00,6152.00,-13596.00,26.93,-246.00,-311.00,-167.00
200,2632.00,5916.00,-13352.00,26.93,-256.00,-441.00,-165.00
201,2912.00,6088.00,-13568.00,26.93,-400.00,-336.00,-122.00
202,2696.00,6108.00,-13252.00,26.84,-275.00,-114.00,-102.00
203,2976.00,5972.00,-13416.00,26.88,-113.00,-172.00,-550.00
204,2824.00,5848.00,-13524.00,26.98,-300.00,-269.00,-279.00
205,2744.00,5772.00,-13544.00,26.93,-523.00,-351.00,-119.00
206,2688.00,6132.00,-13416.00,26.93,-536.00,-182.00,-353.00
207,2508.00,6024.00,-13360.00,26.93,-419.00,-58.00,65.00
208,2728.00,6104.00,-13224.00,26.98,-180.00,-88.00,-299.00
209,2920.00,6212.00,-13484.00,26.79,-186.00,-108.00,-38.00
210,2760.00,5940.00,-13588.00,27.07,-479.00,-195.00,-84.00
211,2752.00,5972.00,-13480.00,26.98,-371.00,-112.00,-222.00
212,2644.00,6020.00,-13544.00,26.98,-716.00,-126.00,34.00
213,2764.00,6320.00,-13492.00,26.98,-586.00,-123.00,-82.00
214,2720.00,6128.00,-13436.00,27.02,-308.00,-185.00,-192.00
215,2764.00,6068.00,-13316.00,26.98,-319.00,-187.00,-301.00
216,2828.00,6240.00,-13316.00,26.98,-482.00,-180.00,-246.00
217,2872.00,6184.00,-13316.00,26.88,-360.00,-161.00,-178.00
218,2812.00,6188.00,-13356.00,26.93,-290.00,-149.00,-264.00
219,2720.00,6172.00,-13540.00,26.93,-337.00,-160.00,-44.00
220,2936.00,6144.00,-13300.00,26.93,-496.00,-191.00,-86.00
221,2876.00,6216.00,-13400.00,26.98,-453.00,-222.00,10012.00,-11196.00,27.17,-501.00,-247.00,-203.00
587,-688.00,9988.00,-11208.00,27.26,-474.00,-278.00,-360.00
588
586,-664.00,10012.00,-11196.00,27.17,-501.00,-247.00,-203.00
587,-688.00,9988.00,-11208.00,27.26,-474.00,-278.00,-360.00
588,-672.00,9900.00,-11020.00,27.21,-352.00,-205.00,-185.00
589,-828.00,9908.00,-11120.00,27.21,-221.00,-145.00,-140.00
590,-556.00,10112.00,-11232.00,27.21,-137.00,-139.00,-259.00
591,-808.00,9912.00,-11064.00,27.26,-455.00,-265.00,-67.00
592,-716.00,9816.00,-11160.00,27.26,7.00,4.00,248.00
593,-652.00,9780.00,-11072.00,27.26,96.00,113.00,373.00
594,-496.00,10244.00,-11464.00,27.21,41.00,42.00,88.00
595,-624.00,11344.00,-12180.00,27.31,-308.00,-47.00,-467.00
596,-572.00,9628.00,-10936.00,27.26,-1147.00,-300.00,-309.00
597,-752.00,9516.00,-10528.00,27.31,-744.00,-337.00,-356.00
598,-496.00,10160.00,-11084.00,27.31,-274.00,-129.00,-35.00
599,-864.00,9668.00,-10956.00,27.21,-52.00,-23.00,-126.00
600,-432.00,9860.00,-11016.00,27.31,193.00,81.00,-10.00
601,-376.00,9592.00,-12268.00,27.17,1062.00,1002.00,579.00
602,-1028.00,10908.00,-11928.00,27.21,-1201.00,-395.00,613.00
603,-400.00,9912.00,-10424.00,27.31,-753.00,322.00,260.00
604,-484.00,9804.00,-10552.00,27.31,-331.00,144.00,827.00
605,-28.00,10276.00,-11752.00,27.17,-231.00,413.00,238.00
606,-496.00,9868.00,-11268.00,27.17,96.00,1472.00,-609.00
607,104.00,10012.00,-11416.00,27.26,-583.00,1035.00,-11.00
608,-1208.00,8696.00,-8628.00,27.26,580.00,3006.00,1213.00
609,548.00,10540.00,-12088.00,27.26,-167.00,1138.00,-359.00
610,-372.00,8220.00,-9284.00,27.35,1280.00,2300.00,1287.00
611,1340.00,10452
Sample,aX,aY,az,Temp,gX,gY,gz
1,2680.00,9408.00,-11588.00,27.31,-516.00,-188.00,-298.00
2,2876.00,9540.00,-11472.00,27.31,-478.00,-208.00,-268.00
3,2668.00,9404.00,-11456.00,27.31,-394.00,-193.00,-59.00
4,2812.00,9516.00,-11568.00,27.26,-528.00,-170.00,-128.00
5,2728.00,9596.00,-11604.00,27.26,-583.00,-136.00,-96.00
6,2640.00,9496.00,-11468.00,27.31,-334.00,-130.00,55.00
7,2756.00,9548.00,-11476.00,27.35,-152.00,-77.00,-62.00
8,2740.00,9460.00,-11452.00,27.31,-580.00,-92.00,-72.00
9,2712.00,9376.00,-11416.00,27.26,-628.00,-64.00,61.00
10,2700.00,9536.00,-11440.00,27.21,-305.00,-29.00,37.00
11,2948.00,9568.00,-11524.00,27.31,-265.00,-80.00,-147.00
12,3136.00,9536.00,-11576.00,27.21,-525.00,-145.00,81.00
13,2816.00,9680.00,-11456.00,27.31,-483.00,-97.00,101.00
14,2952.00,9436.00,-11368.00,27.35,-288.00,-101.00,-63.00
15,2864.00,9628.00,-11452.00,27.35,-138.00,-75.00,-69.00
16,2812.00,9544.00,-11484.00,27.31,-148.00,-122.00,-124.00
17,2780.00,9584.00,-11420.00,27.31,-173.00,-92.00,-89.00
18,2816.00,9468.00,-11388.00,27.21,-257.00,-152.00,-92.00
19,2876.00,9404.00,-11424.00,27.26,-289.00,-124.00,-189.00
20,2924.00,9492.00,-11588.00,27.17,-457.00,-196.00,-50.00
21,2996.00,9484.00,-11384.00,27.17,-437.00,-149.00,-138.00
22,2948.00,9484.00,-11604.00,27.26,-383.00,-189.00,-120.00
23,2944.00,9508.00,-11308.00,27.26,-298.00,-166.00,-152.00
24,2976.00,9492.00,-11532.00,27.26,-279.00,-195.00,-278.00
25,2776.00,9416.00,-11540.00,27.26,-278.00,-157.00,-253.00
26,2712.00,9448.00,-11356.00,27.17,-308.00,-102.00,-90.00
27,2876.00,9500.00,-11396.00,27.26,-368.00,-153.00,-105.00
28,2940.00,9536.00,-11472.00,27.26,-376.00,-184.00,-120.00
29,3048.00,9420.00,-11472.00,27.21,-214.00,-182.00,-171.00
30,2932.00,9452.00,-11420.00,27.31,-248.00,-138.00,-85.00
31,3016.00,9468.00,-11592.00,27.35,-413.00,-162.00,-105.00
32,2920.00,9416.00,-11456.00,27.31,-351.00,-159.00,-68.00
33,3004.00,9456.00,-11444.00,27.26,-73.00,-159.00,-223.00
34,2928.00,9440.00,-11448.00,27.26,-281.00,-140.00,-119.00
35,2876.00,9408.00,-11620.00,27.26,-510.00,-175.00,-91.00
36,2944.00,9428.00,-11308.00,27.26,-304.00,-143.00,-224.00
37,2936.00,9392.00,-11524.00,27.17,-213.00,-191.00,-163.00
38,2900.00,9412.00,-11416.00,27.26,-410.00,-169.00,-125.00
39,2820.00,9416.00,-11444.00,27.26,-398.00,-156.00,-138.00
40,2852.00,9372.00,-11544.00,27.17,-299.00,-120.00,-100.00
41,2908.00,9464.00,-11620.00,27.31,-462.00,-155.00,-125.00
42,2896.00,9564.00,-11324.00,27.31,-302.00,-166.00,-179.00
43,2956.00,9476.00,-11448.00,27.21,-249.00,-153.00,-174.00
44,2876.00,9424.00,-11436.00,27.21,-485.00,-155.00,-213.00
45,2852.00,9520.00,-11416.00,27.26,-377.00,-152.00,-113.00
46,2808.00,9516.00,-11468.00,27.26,-405.00,-174.00,-159.00
47,2944.00,9496.00,-11532.00,27.26,-304.00,-170.00,-109.00
48,2896.00,9500.00,-11452.00,27.07,-307.00,-141.00,-93.00
49,2948.00,9508.00,-11428.00,27.26,-438.00,-185.00,-116.00
50,3044.00,9448.00,-11428.00,27.26,-412.00,-189.00,-117.00
51,2956.00,9404.00,-11372.00,27.26,-335.00,-144.00,-122.00
52,2900.00,9444.00,-11332.00,27.31,-210.00,-154.00,-203.00
53,2844.00,9384.00,-11520.00,27.31,-385.00,-173.00,-155.00
54,3024.00,9524.00,-11456.00,27.31,-513.00,-174.00,-92.00
55,2996.00,9528.00,-11448.00,27.31,-349.00,-157.00,-105.00
56,2856.00,9580.00,-11440.00,27.31,-400.00,-193.00,-232.00
57,2884.00,9508.00,-11452.00,27.21,-382.00,-168.00,-163.00
58,2844.00,9488.00,-11676.00,27.21,-344.00,-145.00,-89.00
59,2916.00,9520.00,-11504.00,27.31,-365.00,-177.00,-98.00
60,2880.00,9476.00,-11404.00,27.26,-377.00,-153.00,-93.00
61,2876.00,9676.00,-11580.00,27.17,-347.00,-178.00,-126.00
62,2888.00,9568.00,-11284.00,27.26,-459.00,-198.00,-159.00
63,2772.00,9692.00,-11500.00,27.26,-204.00,-173.00,-79.00
64,2872.00,9620.00,-11656.00,27.35,-69.00,-128.00,-88.00
65,2884.00,9512.00,-11632.00,27.35,-427.00,-185.00,-158.00
66,2892.00,9476.00,-11440.00,27.26,-591.00,-199.00,-151.00
67,2984.00,9544.00,-11380.00,27.35,-341.00,-209.00,-248.00
68,3008.00,9568.00,-11540.00,27.26,-413.00,-146.00,-33.00
69,2888.00,9584.00,-11324.00,27.26,-372.00,-173.00,-77.00
70,2892.00,9540.00,-11456.00,27.31,-230.00,-178.00,-204.00
71,2972.00,9488.00,-11516.00,27.35,-216.00,-194.00,-200.00
72,2844.00,9428.00,-11540.00,27.26,-536.00,-193.00,-112.00
73,2992.00,9472.00,-11484.00,27.26,-262.00,-162.00,-156.00
74,2904.00,9532.00,-11464.00,27.26,-84.00,-224.00,-242.00
75,2788.00,9468.00,-11580.00,27.26,-348.00,-193.00,-214.00
76,2840.00,9504.00,-11356.00,27.26,-510.00,-223.00,-140.00
77,2848.00,9572.00,-11396.00,27.26,-458.00,-141.00,-108.00
78,3084.00,9544.00,-11428.00,27.17,-436.00,-151.00,-134.00
79,2856.00,9496.00,-11484.00,27.26,-192.00,-177.00,-125.00
80,2864.00,9508.00,-11680.00,27.35,-267.00,-172.00,-137.00
81,2920.00,9488.00,-11368.00,27.26,-295.00,-158.00,-151.00
82,2696.00,9456.00,-11364.00,27.17,-352.00,-154.00,-87.00
83,2756.00,9416.00,-11376.00,27.26,-177.00,-167.00,-217.00
84,2832.00,10936.00,-11912.00,27.26,-1042.00,-152.00,136.00
85,2884.00,9496.00,-11316.00,27.31,-430.00,-191.00,-137.00
86,2908.00,9604.00,-11540.00,27.31,-515.00,-193.00,-90.00
87,2796.00,9572.00,-11400.00,27.31,-478.00,-169.00,-99.00
88,2908.00,9592.00,-11228.00,27.26,-359.00,-152.00,-198.00
89,2856.00,9564.00,-11480.00,27.35,-293.00,-172.00,-166.00
90,2832.00,9528.00,-11268.00,27.31,-357.00,-166.00,-141.00
91,2812.00,9592.00,-11412.00,27.31,-421.00,-166.00,-61.00
92,2752.00,9544.00,-11388.00,27.31,-174.00,-192.00,-196.00
93,2860.00,9520.00,-11392.00,27.40,-270.00,-168.00,-219.00
94,2936.00,9476.00,-11320.00,27.21,-539.00,-166.00,-223.00
95,2936.00,9624.00,-11444.00,27.21,-397.00,-187.00,-145.00
96,2752.00,9584.00,-11452.00,27.21,-376.00,-177.00,-140.00
97,2756.00,9552.00,-11312.00,27.31,-445.00,-99.00,-115.00
98,2928.00,9668.00,-11508.00,27.31,-403.00,-115.00,-67.00
99,2908.00,9612.00,-11552.00,27.40,-351.00,-196.00,-180.00
100,2720.00,9592.00,-11256.00,27.31,-329.00,-161.00,-85.00
101,2740.00,9608.00,-11420.00,27.31,-309.00,-195.00,-195.00
102,2924.00,9592.00,-11464.00,27.35,-468.00,-199.00,-186.00
103,2732.00,9612.00,-11360.00,27.31,-403.00,-165.00,-98.00
104,2768.00,9512.00,-11388.00,27.31,-407.00,-176.00,-112.00
105,2756.00,9624.00,-11396.00,27.21,-436.00,-178.00,-230.00
106,2800.00,9684.00,-11380.00,27.26,-553.00,-191.00,-30.00
107,2536.00,9668.00,-11176.00,27.35,-765.00,-294.00,193.00
108,3324.00,9848.00,-11496.00,27.35,-289.00,-277.00,-338.00
109,2720.00,9704.00,-11520.00,27.31,-998.00,-357.00,-348.00
110,2184.00,9896.00,-10716.00,27.21,-1050.00,-1114.00,21.00
111,972.00,9460.00,-11532.00,27.35,1129.00,-4634.00,1896.00
112,2720.00,11920.00,-13992.00,27.26,-6581.00,-9560.00,-5714.00
113,2184.00,11592.00,-13572.00,27.17,-16337.00,-10349.00,-8614.00
114,-2436.00,10488.00,-6716.00,27.31,-13303.00,-5382.00,-2953.00
115,-2244.00,12084.00,-5464.00,27.35,-6861.00,-3947.00,-856.00
116,-3952.00,11096.00,-4152.00,27.31,-2083.00,7.00,3338.00
117,-1628.00,15660.00,-6864.00,27.31,-3395.00,-1345.00,1530.00
118,-2016.00,15208.00,-3852.00,27.31,1161.00,256.00,1709.00
119,-1028.00,16708.00,-5208.00,27.40,6428.00,2756.00,-1048.00
120,-1224.00,18108.00,-7240.00,27.31,10258.00,4120.00,-507.00
121,-1988.00,11020.00,-8964.00,27.35,10451.00,4992.00,2680.00
122,-1028.00,8992.00,-12160.00,27.31,14654.00,2174.00,2725.00
123,-440.00,8984.00,-12572.00,27.40,16641.00,-1101.00,2001.00
124,216.00,7516.00,-14380.00,27.26,13928.00,-4178.00,-412.00
125,-896.00,2276.00,-14440.00,27.21,13667.00,-4494.00,3454.00
126,-84.00,6312.00,-15232.00,27.35,6658.00,-2702.00,-1285.00
127,-3800.00,5708.00,-14044.00,27.21,-4932.00,-1785.00,1738.00
128,-928.00,9284.00,-12592.00,27.31,402.00,505.00,2814.00
129,-1560.00,736.00,-13684.00,27.21,2584.00,1019.00,2423.00
130,0.00,1252.00,-15372.00,27.31,4248.00,-670.00,4441.00
131,-700.00,80.00,-13748.00,27.40,13663.00,-1804.00,4447.00
132,-2284.00,752.00,-14268.00,27.21,9040.00,677.00,7915.00
133,-776.00,1280.00,-18812.00,27.31,7262.00,-1648.00,6481.00
134,-1292.00,-2516.00,-14488.00,27.35,9867.00,-1435.00,7797.00
135,-2960.00,-2792.00,-11412.00,27.35,8032.00,-2011.00,6466.00
136,-2920.00,-2180.00,-13524.00,27.40,-1141.00,-569.00,502.00
137,-836.00,-5944.00,-17700.00,27.40,5269.00,-2651.00,4890.00
138,-3492.00,-2140.00,-13936.00,27.26,-3411.00,-390.00,1467.00
139,-1944.00,-1748.00,-14776.00,27.26,7214.00,-276.00,1712.00
140,-4620.00,-4000.00,-14904.00,27.31,3476.00,-2919.00,-5625.00
141,-2664.00,-5260.00,-14672.00,27.40,-7852.00,-3505.00,-13609.00
142,-2776.00,-3504.00,-9888.00,27.35,-14156.00,-1074.00,-10917.00
143,-1548.00,-2164.00,-15560.00,27.26,1027.00,2033.00,-4731.00
144,-556.00,-244.00,-12400.00,27.35,-19724.00,5658.00,-4206.00
145,1024.00,2520.00,-20012.00,27.35,-22947.00,7671.00,-7045.00
146,160.00,2072.00,-14256.00,27.31,-18413.00,5757.00,-7235.00
147,-1152.00,3252.00,-10872.00,27.31,-14058.00,5438.00,-1424.00
148,2268.00,8124.00,-13596.00,27.40,-4888.00,2881.00,289.00
149,1664.00,6968.00,-12148.00,27.31,975.00,2065.00,326.00
150,2316.00,8952.00,-12832.00,27.31,278.00,1434.00,-2217.00
151,2216.00,8640.00,-13032.00,27.26,1105.00,1212.00,-439.00
152,1160.00,4068.00,-11016.00,27.26,1073.00,1564.00,356.00
153,2936.00,9864.00,-13976.00,27.26,899.00,1119.00,1198.00
154,2856.00,6028.00,-13980.00,27.26,895.00,214.00,-534.00
155,3096.00,7296.00,-13060.00,27.26,-1213.00,-641.00,-523.00
156,2080.00,7124.00,-11500.00,27.40,-689.00,-163.00,-1182.00
157,2460.00,8556.00,-12944.00,27.35,-1199.00,-304.00,-8.00
158,2584.00,7340.00,-12772.00,27.26,-2150.00,368.00,-490.00
159,2836.00,8392.00,-13548.00,27.26,205.00,224.00,172.00
160,2128.00,6592.00,-12892.00,27.35,53.00,-230.00,-417.00
161,2432.00,7640.00,-12636.00,27.35,-485.00,-71.00,-305.00
162,2692.00,7604.00,-12412.00,27.35,-590.00,-342.00,-88.00
163,2716.00,8004.00,-12640.00,27.35,-160.00,-178.00,-809.00
164,2572.00,7496.00,-12748.00,27.31,-152.00,97.00,-240.00
165,2624.00,7460.00,-12788.00,27.35,-256.00,-170.00,-741.00
166,2372.00,7128.00,-12632.00,27.31,-395.00,-267.00,-226.00
167,2948.00,7452.00,-12636.00,27.40,-992.00,-88.00,-1.00
168,2604.00,8584.00,-12824.00,27.31,-419.00,72.00,204.00
169,2252.00,7968.00,-12228.00,27.26,-551.00,-125.00,-104.00
170,2312.00,7548.00,-12744.00,27.31,138.00,-105.00,-489.00
171,2692.00,7692.00,-12852.00,27.31,-220.00,-189.00,-472.00
172,2460.00,7880.00,-12416.00,27.31,-88.00,-40.00,-181.00
173,2344.00,7732.00,-12720.00,27.31,-314.00,68.00,-37.00
174,2828.00,7348.00,-12888.00,27.35,-473.00,-76.00,-389.00
175,2332.00,7404.00,-12824.00,27.26,-681.00,-175.00,106.00
176,2700.00,7632.00,-12580.00,27.35,-779.00,-4.00,77.00
177,2580.00,7820.00,-12724.00,27.21,-429.00,-180.00,-166.00
178,2744.00,7844.00,-12576.00,27.35,-820.00,-116.00,-52.00
179,2736.00,7888.00,-12684.00,27.26,-648.00,-33.00,-33.00
180,2712.00,7936.00,-12740.00,27.35,-713.00,-51.00,-182.00
181,2476.00,7892.00,-12272.00,27.26,-460.00,-180.00,-106.00
182,2816.00,7880.00,-12380.00,27.31,-554.00,-124.00,-198.00
183,2776.00,7900.00,-12760.00,27.31,-283.00,-80.00,-204.00
184,2600.00,7884.00,-12788.00,27.31,-362.00,-88.00,-171.00
185,2776.00,7928.00,-12344.00,27.35,-568.00,-91.00,-155.00
186,2832.00,7968.00,-12588.00,27.35,-327.00,-85.00,-275.00
187,2884.00,7976.00,-12548.00,27.26,-364.00,-101.00,-141.00
188,2724.00,7928.00,-12560.00,27.40,-436.00,-87.00,-126.00
189,2732.00,8008.00,-12524.00,27.31,-400.00,-152.00,6.00
190,2684.00,7828.00,-12560.00,27.35,-497.00,-147.00,-170.00
191,2816.00,8040.00,-12432.00,27.31,-562.00,-122.00,-224.00
192,2540.00,7888.00,-12404.00,27.31,-547.00,-143.00,19.00
193,2712.00,8004.00,-12464.00,27.40,-384.00,-149.00,-127.00
194,2736.00,7972.00,-12500.00,27.31,-353.00,-153.00,-146.00
195,2592.00,7912.00,-12480.00,27.35,-642.00,-118.00,94.00
196,2564.00,8356.00,-12400.00,27.31,-1065.00,-69.00,258.00
197,2952.00,8244.00,-12348.00,27.31,-514.00,-68.00,-81.00
198,2820.00,8076.00,-12504.00,27.40,-165.00,-161.00,-291.00
199,2660.00,8036.00,-12436.00,27.35,-178.00,-134.00,-361.00
200,2684.00,8200.00,-12536.00,27.26,-417.00,-114.00,-88.00
201,2788.00,8080.00,-12348.00,27.45,-480.00,-188.00,-80.00
202,2780.00,8076.00,-12492.00,27.45,-379.00,-157.00,-87.00
203,2820.00,8156.00,-12320.00,27.31,-117.00,-119.00,-282.00
204,2732.00,8096.00,-12472.00,27.31,-207.00,-188.00,-257.00
205,2840.00,8084.00,-12456.00,27.35,-363.00,-163.00,-196.00
206,2860.00,8132.00,-12452.00,27.26,-178.00,-162.00,-180.00
207,2752.00,7984.00,-12412.00,27.35,-352.00,-144.00,-47.00
208,2744.00,8024.00,-12556.00,27.26,-429.00,-158.00,-20.00
209,2568.00,8072.00,-12556.00,27.35,-160.00,-156.00,-215.00
210,2616.00,8104.00,-12368.00,27.40,-319.00,-161.00,-92.00
211,2836.00,8088.00,-12364.00,27.40,-500.00,-162.00,-38.00
212,2768.00,8048.00,-12396.00,27.40,-238.00,-164.00,-204.00
213,2640.00,7968.00,-12488.00,27.40,-239.00,-143.00,-238.00
214,2832.00,8088.00,-12400.00,27.35,-419.00,-167.00,-94.00
215,2524.00,7880.00,-12528.00,27.26,-301.00,-180.00,-105.00
216,2704.00,8064.00,-12516.00,27.40,-333.00,-134.00,-119.00
217,2768.00,8008.00,-12404.00,27.31,-305.00,-184.00,-167.00
218,2676.00,8000.00,-12448.00,27.35,-284.00,-127.00,-239.00
219,2772.00,7956.00,-12460.00,27.35,-463.00,-148.00,-25.00
220,2616.00,8036.00,-12432.00,27.26,-407.00,-151.00,-43.00
221,2804.00,8068.00,-12428.00,27.40,-361.00,-186.00,-149.00
222,2660.00,8064.00,-12468.00,27.31,-359.00,-179.00,-166.00
223,2812.00,8184.00,-12332.00,27.35,-437.00,-191.00,-95.00
224,2596.00,8136.00,-12448.00,27.35,-521.00,-217.00,-163.00
225,2692.00,8060.00,-12416.00,27.31,-294.00,-156.00,-153.00
226,2744.00,8020.00,-12424.00,27.31,-203.00,-158.00,-235.00
227,2824.00,8056.00,-12404.00,27.35,-471.00,-134.00,-68.00
228,2868.00,8072.00,-12348.00,27.35,-673.00,-210.00,-11.00
229,2720.00,8244.00,-12224.00,27.35,-395.00,-131.00,-188.00
230,2692.00,8124.00,-12436.00,27.40,-187.00,-157.00,-211.00
231,2768.00,8096.00,-12324.00,27.40,-411.00,-171.00,-57.00
232,2792.00,7968.00,-12380.00,27.35,-126.00,-121.00,-286.00
233,2280.00,7956.00,-12616.00,27.35,-487.00,71.00,271.00
234,2572.00,8164.00,-12224.00,27.31,-561.00,-161.00,20.00
235,3004.00,8216.00,-12388.00,27.21,-213.00,-225.00,-363.00
236,2852.00,8068.00,-12424.00,27.35,-382.00,-225.00,-233.00
237,2804.00,8060.00,-12300.00,27.40,-445.00,-157.00,5.00
238,2772.00,8152.00,-12388.00,27.35,-388.00,-142.00,-109.00
239,2616.00,8132.00,-12316.00,27.40,-310.00,-145.00,-182.00
240,2812.00,8164.00,-12392.00,27.40,-388.00,-181.00,-142.00
241,2688.00,8132.00,-12372.00,27.35,-283.00,-198.00,-184.00
242,2620.00,8216.00,-12384.00,27.35,-413.00,-208.00,-128.00
243,2776.00,8160.00,-12316.00,27.40,-387.00,-163.00,-90.00
244,2768.00,8180.00,-12384.00,27.40,-234.00,-179.00,-163.00
245,2704.00,8100.00,-12420.00,27.40,-449.00,-155.00,-68.00
246,2852.00,8140.00,-12316.00,27.35,-496.00,-182.00,-35.00
247,2692.00,8312.00,-12516.00,27.35,-384.00,-182.00,-86.00
248,2748.00,8104.00,-12352.00,27.26,-372.00,-213.00,-72.00
249,2592.00,8140.00,-12372.00,27.35,-316.00,-168.00,-95.00
250,2724.00,8092.00,-12488.00,27.35,-268.00,-176.00,-185.00
251,2620.00,8124.00,-12436.00,27.31,-377.00,-149.00,-110.00
252,2604.00,8220.00,-12284.00,27.31,-445.00,-190.00,-74.00
253,2800.00,8076.00,-12364.00,27.31,-174.00,-184.00,-322.00
254,2772.00,8124.00,-12340.00,27.31,-405.00,-169.00,-178.00
255,2740.00,8140.00,-12392.00,27.45,-300.00,-179.00,-197.00
256,2648.00,8168.00,-12444.00,27.31,-297.00,-165.00,-204.00
257,2604.00,8164.00,-12484.00,27.31,-308.00,-156.00,-76.00
258,2744.00,8172.00,-12508.00,27.40,-305.00,-145.00,-78.00
259,2764.00,8068.00,-12428.00,27.31,-238.00,-153.00,-235.00
260,2760.00,7756.00,-12424.00,27.35,-395.00,-162.00,-172.00
261,2564.00,8004.00,-12372.00,27.35,-367.00,-217.00,-60.00
262,2808.00,8060.00,-12296.00,27.40,-584.00,-164.00,92.00
263,2804.00,8176.00,-12424.00,27.31,-385.00,-160.00,-78.00
264,2700.00,8044.00,-12312.00,27.49,-269.00,-168.00,-168.00
265,2748.00,8160.00,-12412.00,27.31,-231.00,-139.00,-174.00
266,2696.00,8204.00,-12340.00,27.45,-324.00,-174.00,-92.00
267,2800.00,8196.00,-12464.00,27.35,-445.00,-144.00,-28.00
268,2576.00,8176.00,-12352.00,27.45,-288.00,-129.00,-98.00
269,2556.00,8172.00,-12380.00,27.40,-230.00,-124.00,-114.00
270,2668.00,8040.00,-12320.00,27.40,-420.00,-190.00,-43.00
271,2824.00,8136.00,-12392.00,27.35,-424.00,-202.00,-80.00
272,2752.00,8128.00,-12168.00,27.45,-841.00,-249.00,-111.00
273,2788.00,8392.00,-12440.00,27.35,-404.00,-199.00,-95.00
274,2880.00,8060.00,-12204.00,27.40,-279.00,-128.00,-142.00
275,2684.00,8168.00,-12524.00,27.40,-498.00,-156.00,-30.00
276,2636.00,8156.00,-12280.00,27.31,-252.00,-205.00,-170.00
277,2944.00,8216.00,-12428.00,27.35,-567.00,-143.00,-72.00
278,2880.00,7128.00,-12264.00,27.35,-57.00,-291.00,-472.00
279,2808.00,8180.00,-12316.00,27.35,-313.00,-171.00,-183.00
280,2844.00,8220.00,-12444.00,27.40,-398.00,-131.00,-92.00
281,2708.00,8308.00,-12392.00,27.31,-445.00,-158.00,-24.00
282,2788.00,8264.00,-12352.00,27.31,-410.00,-160.00,-65.00
283,2912.00,8272.00,-12516.00,27.40,-362.00,-143.00,-133.00
284,2840.00,8336.00,-12312.00,27.45,-398.00,-128.00,-134.00
285,2816.00,8292.00,-12336.00,27.35,-300.00,-153.00,-103.00
286,2816.00,8276.00,-12312.00,27.40,-383.00,-165.00,-86.00
287,2888.00,8296.00,-12272.00,27.31,-449.00,-182.00,-78.00
288,2844.00,8280.00,-12416.00,27.31,-284.00,-176.00,-179.00
289,2800.00,8228.00,-12392.00,27.35,-430.00,-186.00,-114.00
290,2684.00,8248.00,-12324.00,27.35,-455.00,-129.00,25.00
291,2684.00,8228.00,-12452.00,27.35,-397.00,-181.00,-108.00
292,2804.00,8328.00,-12360.00,27.31,-403.00,-162.00,-118.00
293,2876.00,8148.00,-12368.00,27.40,-358.00,-202.00,-137.00
294,2644.00,8256.00,-12308.00,27.35,-315.00,-151.00,-156.00
295,2840.00,8220.00,-12428.00,27.35,-425.00,-168.00,-85.00
296,2840.00,8260.00,-12064.00,27.35,-311.00,-168.00,-184.00
297,2756.00,8260.00,-12236.00,27.31,-279.00,-148.00,-79.00
298,2748.00,8188.00,-12328.00,27.40,-405.00,-147.00,-37.00
299,2860.00,8288.00,-12316.00,27.40,-423.00,-157.00,-155.00
300,2736.00,8208.00,-12200.00,27.35,-242.00,-197.00,-113.00
301,2640.00,8108.00,-12320.00,27.31,-348.00,-253.00,-256.00
302,2836.00,8232.00,-12336.00,27.35,-409.00,-159.00,-22.00
303,2720.00,8300.00,-12480.00,27.40,-344.00,-159.00,-103.00
304,2712.00,8356.00,-12272.00,27.35,-187.00,-264.00,-267.00
305,2848.00,8252.00,-12332.00,27.49,-262.00,-158.00,-206.00
306,2588.00,8324.00,-12348.00,27.40,-402.00,-173.00,-148.00
307,2844.00,8260.00,-12336.00,27.45,-182.00,-163.00,-254.00
308,2556.00,8060.00,-12188.00,27.35,-128.00,-188.00,-288.00
309,2832.00,8164.00,-12424.00,27.40,-256.00,-174.00,-200.00
310,2592.00,7756.00,-12324.00,27.35,-361.00,-238.00,-269.00
311,2688.00,8256.00,-12480.00,27.45,-423.00,-177.00,-97.00
312,2776.00,8212.00,-12264.00,27.45,-305.00,-153.00,-160.00
313,2860.00,8144.00,-12364.00,27.49,-198.00,-165.00,-221.00
314,2636.00,8316.00,-12508.00,27.40,-470.00,-118.00,-35.00
315,2660.00,8128.00,-12340.00,27.40,-449.00,-192.00,-98.00
316,2596.00,8124.00,-12232.00,27.35,-350.00,-182.00,-139.00
317,2692.00,8172.00,-12272.00,27.45,-442.00,-160.00,-87.00
318,2592.00,8120.00,-12400.00,27.40,-452.00,-172.00,-27.00
319,2828.00,8236.00,-12400.00,27.40,-458.00,-186.00,-69.00
320,2816.00,8160.00,-12272.00,27.40,-397.00,-153.00,-83.00
321,2820.00,8276.00,-12372.00,27.31,-147.00,-145.00,-208.00
322,2804.00,8264.00,-12324.00,27.45,-361.00,-145.00,-178.00
323,2860.00,8268.00,-12344.00,27.35,-606.00,-217.00,-15.00
324,2752.00,8240.00,-12288.00,27.35,-457.00,-176.00,-71.00
325,2588.00,8244.00,-12500.00,27.35,-320.00,-175.00,-140.00
326,2704.00,8308.00,-12280.00,27.31,-416.00,-157.00,-87.00
327,2820.00,8312.00,-12196.00,27.40,-436.00,-166.00,-58.00
328,2636.00,8292.00,-12652.00,27.40,-167.00,-183.00,-212.00
329,2700.00,8368.00,-12488.00,27.49,-338.00,-180.00,-182.00
330,2604.00,8304.00,-12380.00,27.45,-364.00,-210.00,-83.00
331,2784.00,8284.00,-12276.00,27.45,-375.00,-126.00,-25.00
332,2620.00,8296.00,-12340.00,27.35,-306.00,-168.00,-176.00
333,2724.00,8216.00,-12324.00,27.54,-313.00,-121.00,-180.00
334,2732.00,8292.00,-12240.00,27.40,-228.00,-171.00,-206.00
335,2760.00,8308.00,-12440.00,27.49,-213.00,-173.00,-257.00
336,2592.00,8160.00,-12356.00,27.35,-359.00,-204.00,-136.00
337,2728.00,8308.00,-12384.00,27.40,-366.00,-160.00,-116.00
338,2568.00,8160.00,-12404.00,27.40,-147.00,-174.00,-239.00
339,2652.00,8140.00,-12452.00,27.40,-342.00,-150.00,-115.00
340,2748.00,8340.00,-12400.00,27.45,-493.00,-162.00,-21.00
341,2728.00,8204.00,-12396.00,27.45,-297.00,-169.00,-136.00
342,2808.00,8244.00,-12328.00,27.45,-228.00,-172.00,-190.00
343,2604.00,8220.00,-12216.00,27.40,-380.00,-188.00,-50.00
344,2760.00,8212.00,-12352.00,27.49,-304.00,-161.00,-130.00
345,2864.00,8276.00,-12380.00,27.40,-197.00,-126.00,-175.00
346,2708.00,8160.00,-12304.00,27.45,-203.00,-179.00,-250.00
347,2976.00,8344.00,-12576.00,27.35,-970.00,-133.00,123.00
348,2692.00,8232.00,-12248.00,27.35,-368.00,-88.00,-47.00
349,2708.00,8216.00,-12368.00,27.35,-274.00,-116.00,-167.00
350,2708.00,8108.00,-12564.00,27.45,-308.00,-183.00,-224.00
351,2780.00,8144.00,-12284.00,27.40,-545.00,-161.00,-18.00
352,2648.00,8248.00,-12248.00,27.40,-377.00,-132.00,-163.00
353,2800.00,8148.00,-12580.00,27.35,-321.00,-158.00,-137.00
354,2688.00,8012.00,-12364.00,27.45,-623.00,-174.00,99.00
355,2768.00,8252.00,-12416.00,27.35,-300.00,-140.00,-171.00
356,2776.00,7944.00,-12432.00,27.35,-326.00,-205.00,-203.00
357,2576.00,8252.00,-12364.00,27.49,-537.00,-152.00,9.00
358,2672.00,8328.00,-12380.00,27.35,-375.00,-165.00,-153.00
359,2632.00,8152.00,-12468.00,27.35,-423.00,-164.00,-116.00
360,2724.00,8180.00,-12388.00,27.49,-440.00,-117.00,-42.00
361,2776.00,8332.00,-12348.00,27.40,-441.00,-120.00,-8.00
362,2640.00,8240.00,-12388.00,27.54,-344.00,-165.00,-124.00
363,2776.00,8280.00,-12348.00,27.49,-393.00,-194.00,-177.00
364,2848.00,8312.00,-12328.00,27.49,-328.00,-127.00,-159.00
365,2680.00,8244.00,-12240.00,27.49,-419.00,-150.00,-76.00
366,2568.00,8096.00,-12320.00,27.45,-452.00,-179.00,-128.00
367,2748.00,8248.00,-12332.00,27.35,-485.00,-181.00,-90.00
368,2736.00,8284.00,-12328.00,27.35,-362.00,-153.00,-38.00
369,2844.00,8412.00,-12388.00,27.35,-299.00,-160.00,-140.00
370,2684.00,8236.00,-12228.00,27.40,-323.00,-159.00,-179.00
371,2796.00,8264.00,-12232.00,27.49,-307.00,-135.00,-182.00
372,2848.00,8364.00,-12340.00,27.35,-396.00,-159.00,-82.00
373,2668.00,8284.00,-12392.00,27.35,-371.00,-196.00,-87.00
374,2852.00,8460.00,-12268.00,27.35,-366.00,-146.00,-84.00
375,2768.00,8304.00,-12268.00,27.35,-417.00,-167.00,-88.00
376,2720.00,8260.00,-12488.00,27.40,-271.00,-168.00,-132.00
377,2616.00,8332.00,-12376.00,27.40,-239.00,-208.00,-134.00
378,2776.00,8392.00,-12288.00,27.54,-363.00,-169.00,-138.00
379,2864.00,8364.00,-12172.00,27.45,-255.00,-156.00,-189.00
380,2700.00,8280.00,-12388.00,27.40,-448.00,-161.00,-57.00
381,2852.00,8288.00,-12152.00,27.40,-349.00,-148.00,-77.00
382,2752.00,8264.00,-12452.00,27.49,-244.00,-182.00,-130.00
383,2660.00,8296.00,-12320.00,27.45,-439.00,-189.00,-73.00
384,2736.00,8360.00,-12272.00,27.45,-300.00,-151.00,-179.00
385,2904.00,8348.00,-12384.00,27.49,-377.00,-131.00,-50.00
386,2768.00,8212.00,-12344.00,27.49,-309.00,-173.00,-109.00
387,2792.00,8332.00,-12356.00,27.49,-142.00,-166.00,-188.00
388,2804.00,8260.00,-12324.00,27.45,-328.00,-173.00,-164.00
389,2812.00,8292.00,-12372.00,27.54,-339.00,-162.00,-148.00
390,2680.00,8428.00,-12348.00,27.49,-296.00,-191.00,-404.00
391,2676.00,8244.00,-12200.00,27.35,-256.00,-179.00,-231.00
392,2640.00,8204.00,-12244.00,27.45,-398.00,-174.00,-102.00
393,2668.00,8316.00,-12372.00,27.49,-490.00,-163.00,-68.00
394,2656.00,8284.00,-12276.00,27.40,-507.00,-172.00,-77.00
395,2744.00,8376.00,-12276.00,27.40,-285.00,-209.00,-225.00
396,2764.00,8340.00,-12304.00,27.40,-359.00,-174.00,-158.00
397,2768.00,8312.00,-12272.00,27.35,-462.00,-166.00,-88.00
398,2660.00,8228.00,-12264.00,27.35,-292.00,-108.00,-52.00
399,2868.00,8264.00,-12368.00,27.54,-269.00,-165.00,-181.00
400,2636.00,8216.00,-12160.00,27.40,-455.00,-221.00,-145.00
401,2756.00,8252.00,-12252.00,27.40,-509.00,-81.00,47.00
402,2792.00,8252.00,-12356.00,27.45,-580.00,-58.00,200.00
403,2812.00,8368.00,-12192.00,27.35,-114.00,-118.00,-126.00
404,2584.00,8244.00,-12212.00,27.45,-343.00,-212.00,-222.00
405,2832.00,8344.00,-12324.00,27.40,-480.00,-177.00,-76.00
406,2740.00,8256.00,-12292.00,27.40,-423.00,-173.00,-125.00
407,2828.00,8308.00,-12304.00,27.40,-398.00,-182.00,-140.00
408,2808.00,8372.00,-12228.00,27.40,-428.00,-139.00,-114.00
409,2816.00,8336.00,-12320.00,27.45,-392.00,-166.00,-110.00
410,2780.00,8344.00,-12236.00,27.54,-302.00,-174.00,-148.00
411,2960.00,8340.00,-12176.00,27.49,-369.00,-170.00,-181.00
412,2696.00,8288.00,-12200.00,27.40,-195.00,-154.00,-176.00
413,2920.00,8380.00,-12320.00,27.49,-444.00,-138.00,-22.00
414,2768.00,8336.00,-12096.00,27.45,-362.00,-142.00,-103.00
415,2864.00,8372.00,-12420.00,27.45,-241.00,-184.00,-159.00
416,2884.00,8276.00,-12352.00,27.54,-507.00,-148.00,-55.00
417,2812.00,8368.00,-12344.00,27.40,-260.00,-160.00,-166.00
418,2788.00,8364.00,-12316.00,27.49,-228.00,-173.00,-198.00
419,2700.00,8396.00,-12408.00,27.45,-464.00,-143.00,-35.00
420,2664.00,8288.00,-12288.00,27.45,-183.00,-186.00,-223.00
421,2764.00,8452.00,-12348.00,27.45,-176.00,-187.00,-224.00
422,2820.00,8284.00,-12384.00,27.40,-551.00,-161.00,27.00
423,2804.00,8316.00,-12300.00,27.40,-331.00,-164.00,-129.00
424,2736.00,8264.00,-12132.00,27.49,-255.00,-198.00,-212.00
425,2744.00,8304.00,-12352.00,27.45,-349.00,-181.00,-67.00
426,2640.00,8252.00,-12228.00,27.54,-303.00,-223.00,-121.00
427,2732.00,8328.00,-12252.00,27.45,-257.00,-156.00,-105.00
428,2736.00,8272.00,-12232.00,27.49,-346.00,-168.00,-66.00
429,2740.00,8284.00,-12304.00,27.40,-215.00,-164.00,-169.00
430,2724.00,8240.00,-12360.00,27.49,-337.00,-171.00,-169.00
431,2780.00,8244.00,-12272.00,27.54,-300.00,-136.00,-107.00
432,2808.00,8368.00,-12488.00,27.45,-327.00,-176.00,-130.00
433,2876.00,8344.00,-12148.00,27.40,-209.00,-137.00,-138.00
434,2864.00,8204.00,-12316.00,27.49,-385.00,-164.00,-139.00
435,2648.00,8240.00,-12352.00,27.45,-283.00,-153.00,-133.00
436,2668.00,8264.00,-12184.00,27.45,-232.00,-132.00,-125.00
437,2892.00,8364.00,-12436.00,27.49,-304.00,-172.00,-188.00
438,2680.00,8192.00,-12280.00,27.40,-416.00,-183.00,-141.00
439,2792.00,8232.00,-12328.00,27.45,-364.00,-184.00,-126.00
440,2692.00,8288.00,-12392.00,27.40,-452.00,-179.00,-158.00
441,2748.00,8264.00,-12356.00,27.40,-395.00,-171.00,-148.00
442,2700.00,8292.00,-12328.00,27.45,-342.00,-166.00,-93.00
443,2760.00,8296.00,-12384.00,27.45,-384.00,-174.00,-103.00
444,2844.00,8316.00,-12276.00,27.49,-393.00,-122.00,-28.00
445,2704.00,8240.00,-12132.00,27.49,-216.00,-103.00,-120.00
446,2864.00,8260.00,-12312.00,27.40,-276.00,-85.00,-76.00
447,2736.00,8292.00,-12392.00,27.49,-446.00,-203.00,-114.00
448,2844.00,8372.00,-12328.00,27.54,-363.00,-159.00,-95.00
449,2780.00,8340.00,-12308.00,27.35,-349.00,-207.00,-197.00
450,2700.00,8208.00,-12336.00,27.49,-431.00,-171.00,-133.00
451,2752.00,8308.00,-12288.00,27.49,-458.00,-178.00,-104.00
452,2772.00,8368.00,-12304.00,27.45,-378.00,-167.00,-74.00
453,2832.00,8272.00,-12340.00,27.49,-394.00,-226.00,-215.00
454,2752.00,8448.00,-12272.00,27.54,-269.00,-175.00,-192.00
455,2900.00,8384.00,-12348.00,27.40,-579.00,-188.00,-138.00
456,2824.00,8372.00,-12280.00,27.54,-361.00,-125.00,-77.00
457,2592.00,8200.00,-12208.00,27.45,-312.00,-203.00,-185.00
458,2752.00,8408.00,-12340.00,27.54,-406.00,-162.00,-128.00
459,2772.00,8364.00,-12276.00,27.49,-343.00,-180.00,-129.00
460,2852.00,8352.00,-12308.00,27.49,-346.00,-170.00,-112.00
461,2776.00,8312.00,-12176.00,27.54,-348.00,-162.00,-90.00
462,2732.00,8400.00,-12372.00,27.45,-337.00,-186.00,-170.00
463,2636.00,8320.00,-12180.00,27.54,-369.00,-155.00,-127.00
464,2688.00,8420.00,-12236.00,27.49,-405.00,-162.00,-120.00
465,2800.00,8288.00,-12312.00,27.49,-313.00,-188.00,-202.00
466,2572.00,8328.00,-12352.00,27.45,-430.00,-183.00,-155.00
467,2928.00,8348.00,-12128.00,27.45,-442.00,-147.00,-97.00
468,2656.00,8308.00,-12180.00,27.45,-268.00,-167.00,-158.00
469,2596.00,8344.00,-12264.00,27.49,-341.00,-200.00,-108.00
470,2680.00,8356.00,-12208.00,27.49,-298.00,-201.00,-140.00
471,2660.00,8448.00,-12336.00,27.45,-190.00,-180.00,-166.00
472,2616.00,8296.00,-12296.00,27.45,-462.00,-162.00,-63.00
473,2720.00,8480.00,-12204.00,27.45,-360.00,-115.00,-18.00
474,2696.00,8352.00,-12316.00,27.45,-194.00,-181.00,-154.00
475,2736.00,8272.00,-12236.00,27.49,-424.00,-163.00,-4.00
476,2740.00,8420.00,-12248.00,27.59,-385.00,-164.00,-120.00
477,2792.00,8392.00,-12244.00,27.49,-219.00,-118.00,-128.00
478,2708.00,8256.00,-12300.00,27.49,-385.00,-173.00,-62.00
479,2688.00,8420.00,-12284.00,27.40,-269.00,-162.00,-128.00
480,2820.00,8248.00,-12240.00,27.54,-327.00,-195.00,-177.00
481,2732.00,8304.00,-12152.00,27.45,-376.00,-173.00,-123.00
482,2792.00,8248.00,-12336.00,27.49,-286.00,-166.00,-185.00
483,2692.00,8224.00,-12384.00,27.49,-357.00,-197.00,-158.00
484,2700.00,8312.00,-12324.00,27.45,-386.00,-134.00,-94.00
485,2832.00,8276.00,-12164.00,27.54,-289.00,-165.00,-170.00
486,2808.00,8324.00,-12316.00,27.49,-289.00,-131.00,-144.00
487,2752.00,8216.00,-12348.00,27.49,-394.00,-184.00,-112.00
488,2728.00,8028.00,-12176.00,27.54,-243.00,-224.00,-316.00
489,2740.00,8352.00,-12380.00,27.49,-451.00,-143.00,-103.00
490,2912.00,8324.00,-12100.00,27.49,-416.00,-167.00,-79.00
491,2632.00,8256.00,-12296.00,27.40,-294.00,-192.00,-196.00
492,2732.00,8256.00,-11976.00,27.45,-472.00,-174.00,-56.00
493,2764.00,8320.00,-12184.00,27.35,-419.00,-143.00,-68.00
494,2668.00,8304.00,-12176.00,27.45,-324.00,-183.00,-118.00
495,2832.00,8324.00,-12268.00,27.49,-458.00,-155.00,-48.00
496,2820.00,8400.00,-12184.00,27.49,-370.00,-177.00,-162.00
497,2704.00,8412.00,-12120.00,27.45,-249.00,-194.00,-198.00
498,2920.00,8312.00,-12432.00,27.45,-564.00,-161.00,-56.00
499,2812.00,8408.00,-12148.00,27.59,-411.00,-172.00,-102.00
500,2640.00,8324.00,-12284.00,27.49,-247.00,-156.00,-204.00
501,2608.00,8228.00,-12236.00,27.54,-372.00,-131.00,-96.00
502,2912.00,8308.00,-12228.00,27.54,-403.00,-185.00,-94.00
503,2952.00,8268.00,-12068.00,27.54,-315.00,-162.00,-100.00
504,2692.00,8420.00,-12404.00,27.49,-336.00,-190.00,-138.00
505,2708.00,8312.00,-12168.00,27.49,-315.00,-179.00,-164.00
506,2672.00,8312.00,-12256.00,27.59,-353.00,-142.00,-112.00
507,2772.00,8364.00,-12340.00,27.54,-425.00,-156.00,-82.00
508,2876.00,8324.00,-12088.00,27.45,-195.00,-159.00,-203.00
509,2744.00,8360.00,-12304.00,27.49,-328.00,-170.00,-150.00
510,2608.00,8360.00,-12112.00,27.49,-376.00,-134.00,-52.00
511,2768.00,8420.00,-12376.00,27.49,-243.00,-174.00,-128.00
512,2632.00,8320.00,-12116.00,27.54,-395.00,-182.00,-59.00
513,2664.00,8376.00,-12376.00,27.54,-252.00,-200.00,-204.00
514,2732.00,8268.00,-12256.00,27.49,-238.00,-156.00,-200.00
515,2780.00,8352.00,-12312.00,27.49,-450.00,-174.00,-85.00
516,2772.00,8236.00,-12156.00,27.54,-304.00,-158.00,-104.00
517,2816.00,8284.00,-12280.00,27.45,-304.00,-183.00,-178.00
518,2712.00,8244.00,-12452.00,27.49,-344.00,-149.00,-63.00
519,2832.00,8440.00,-12332.00,27.49,-299.00,-176.00,-92.00
520,2888.00,8308.00,-12292.00,27.54,-385.00,-145.00,-97.00
521,2784.00,8372.00,-12260.00,27.64,-491.00,-171.00,-74.00
522,2708.00,8340.00,-12300.00,27.54,-104.00,-184.00,-241.00
523,2736.00,8048.00,-12316.00,27.59,-358.00,-204.00,-225.00
524,2568.00,8296.00,-12120.00,27.49,-423.00,-178.00,-148.00
525,2724.00,8260.00,-12180.00,27.54,-282.00,-156.00,-144.00
526,2812.00,8340.00,-12300.00,27.49,-444.00,-181.00,-91.00
527,2676.00,8372.00,-12212.00,27.40,-360.00,-161.00,-138.00
528,2656.00,8312.00,-12304.00,27.54,-357.00,-133.00,-102.00
529,2604.00,8332.00,-12376.00,27.54,-419.00,-142.00,-37.00
530,2768.00,8268.00,-12180.00,27.49,-284.00,-171.00,-130.00
531,2732.00,8452.00,-12324.00,27.49,-333.00,-153.00,-127.00
532,2772.00,8316.00,-12216.00,27.45,-506.00,-140.00,-18.00
533,2768.00,8404.00,-12300.00,27.54,-301.00,-161.00,-90.00
534,2820.00,8312.00,-12208.00,27.45,-391.00,-211.00,-141.00
535,2756.00,8280.00,-12280.00,27.59,-407.00,-183.00,-78.00
536,2708.00,8312.00,-12300.00,27.40,-417.00,-183.00,-116.00
537,2704.00,8396.00,-12176.00,27.59,-325.00,-123.00,-109.00
538,2860.00,8324.00,-12204.00,27.54,-381.00,-226.00,-156.00
539,2788.00,8388.00,-12320.00,27.49,-312.00,-213.00,-172.00
540,2680.00,8296.00,-12224.00,27.59,-480.00,-172.00,-85.00
541,2692.00,8380.00,-12240.00,27.64,-398.00,-93.00,-55.00
542,2780.00,8368.00,-12092.00,27.54,-307.00,-181.00,-151.00
543,2880.00,8412.00,-12252.00,27.54,-405.00,-178.00,-76.00
544,2712.00,8344.00,-12188.00,27.59,-367.00,-190.00,-102.00
545,2944.00,8424.00,-12228.00,27.59,-314.00,-144.00,-149.00
546,2932.00,8452.00,-12316.00,27.54,-412.00,-186.00,-133.00
547,2572.00,8376.00,-12092.00,27.54,-194.00,-182.00,-215.00
548,2796.00,8328.00,-12212.00,27.59,-350.00,-182.00,-131.00
549,2776.00,8396.00,-12256.00,27.54,-484.00,-195.00,-83.00
550,2840.00,8372.00,-12264.00,27.54,-272.00,-135.00,-155.00
551,2796.00,8264.00,-12220.00,27.49,-389.00,-193.00,-156.00
552,2688.00,8432.00,-12260.00,27.59,-355.00,-140.00,-87.00
553,2880.00,8336.00,-12252.00,27.59,-362.00,-185.00,-104.00
554,2688.00,8304.00,-12212.00,27.45,-276.00,-162.00,-116.00
555,2884.00,8324.00,-12252.00,27.59,-304.00,-208.00,-200.00
556,2788.00,8304.00,-12332.00,27.49,-260.00,-183.00,-118.00
557,2848.00,8368.00,-12008.00,27.64,-401.00,-156.00,-89.00
558,2648.00,8260.00,-12148.00,27.45,-247.00,-167.00,-202.00
559,2728.00,8252.00,-12360.00,27.54,-308.00,-193.00,-173.00
560,2884.00,8324.00,-12312.00,27.59,-333.00,-166.00,-51.00
561,2736.00,8320.00,-12328.00,27.59,-318.00,-182.00,-102.00
562,2828.00,8308.00,-12264.00,27.45,-337.00,-145.00,-62.00
563,2784.00,8360.00,-12252.00,27.54,-339.00,-158.00,-48.00
564,2748.00,8256.00,-12232.00,27.45,-144.00,-191.00,-201.00
565,2844.00,8300.00,-12296.00,27.49,-302.00,-164.00,-153.00
566,2768.00,8316.00,-12236.00,27.59,-428.00,-200.00,-83.00
567,2756.00,8268.00,-12312.00,27.49,-209.00,-159.00,-122.00
568,2696.00,8212.00,-12340.00,27.54,-256.00,-173.00,-260.00
569,2692.00,8272.00,-12132.00,27.59,-304.00,-149.00,-160.00
570,2720.00,8300.00,-12304.00,27.40,-364.00,-181.00,-87.00
571,2792.00,8260.00,-12272.00,27.59,-355.00,-175.00,-126.00
572,2840.00,8380.00,-12356.00,27.64,-398.00,-120.00,-2.00
573,2836.00,8380.00,-12176.00,27.54,-319.00,-182.00,-180.00
574,2744.00,8328.00,-12480.00,27.54,-384.00,-155.00,-103.00
575,2832.00,8324.00,-12220.00,27.49,-374.00,-153.00,-105.00
576,2696.00,8328.00,-12420.00,27.49,-303.00,-175.00,-122.00
577,2660.00,8364.00,-12268.00,27.45,-467.00,-178.00,-73.00
578,2748.00,8244.00,-12340.00,27.54,-289.00,-137.00,-94.00
579,2780.00,8380.00,-12452.00,27.45,-388.00,-172.00,-124.00
580,2800.00,8356.00,-12192.00,27.54,-396.00,-179.00,-77.00
581,2804.00,8380.00,-12308.00,27.54,-353.00,-222.00,-140.00
582,2756.00,8384.00,-12248.00,27.59,-270.00,-195.00,-202.00
583,2768.00,8304.00,-12412.00,27.59,-454.00,-156.00,-67.00
584,2640.00,8256.00,-12328.00,27.49,-395.00,-194.00,-147.00
585,2724.00,8352.00,-12440.00,27.59,-300.00,-183.00,-190.00
586,2684.00,8304.00,-12060.00,27.54,-398.00,-156.00,-83.00
587,2832.00,8400.00,-12352.00,27.64,-398.00,-148.00,-74.00
588,2848.00,8308.00,-12128.00,27.64,-320.00,-170.00,-182.00
589,2616.00,8324.00,-12328.00,27.49,-347.00,-159.00,-100.00
590,2748.00,8304.00,-12172.00,27.59,-307.00,-202.00,-172.00
591,2708.00,8356.00,-12448.00,27.54,-278.00,-201.00,-180.00
592,2692.00,8248.00,-12316.00,27.45,-492.00,-173.00,-89.00
593,2836.00,8320.00,-12116.00,27.49,-385.00,-170.00,-79.00
594,2672.00,8256.00,-12252.00,27.59,-244.00,-180.00,-229.00
595,2760.00,8356.00,-12228.00,27.59,-390.00,-160.00,-71.00
596,2604.00,8268.00,-12228.00,27.59,-327.00,-170.00,-107.00
597,2636.00,8248.00,-12252.00,27.54,-274.00,-192.00,-166.00
598,2688.00,8404.00,-12340.00,27.54,-405.00,-186.00,-51.00
599,2684.00,8332.00,-12344.00,27.64,-237.00,-157.00,-101.00
600,2788.00,8332.00,-12268.00,27.49,-219.00,-155.00,-216.00
601,2972.00,8288.00,-12324.00,27.49,-470.00,-189.00,-81.00
602,2740.00,8288.00,-12228.00,27.59,-324.00,-179.00,-169.00
603,2624.00,8324.00,-12308.00,27.54,-308.00,-174.00,-136.00
604,2720.00,8260.00,-12268.00,27.54,-387.00,-174.00,-51.00
605,2720.00,8324.00,-12300.00,27.59,-329.00,-215.00,-96.00
606,2772.00,8240.00,-12264.00,27.49,-320.00,-205.00,-211.00
607,2684.00,8364.00,-12412.00,27.49,-358.00,-230.00,-95.00
608,2680.00,8364.00,-12332.00,27.54,-165.00,-175.00,-245.00
609,2828.00,8240.00,-12388.00,27.54,-378.00,-163.00,-109.00
610,2656.00,8296.00,-12300.00,27.59,-389.00,-163.00,-115.00
611,2776.00,8304.00,-12220.00,27.59,-215.00,-180.00,-221.00
612,2576.00,8352.00,-12372.00,27.54,-342.00,-152.00,-99.00
613,2760.00,8160.00,-12184.00,27.45,-353.00,-154.00,-87.00
614,2740.00,8280.00,-12332.00,27.64,-373.00,-175.00,-120.00
615,2704.00,8196.00,-12316.00,27.59,-288.00,-151.00,-166.00
616,2788.00,8240.00,-12276.00,27.59,-444.00,-175.00,-89.00
617,2624.00,8248.00,-12404.00,27.59,-208.00,-147.00,-259.00
618,2636.00,8132.00,-12460.00,27.54,-359.00,-206.00,-205.00
619,2672.00,8320.00,-12180.00,27.64,-441.00,-191.00,-125.00
620,2712.00,8288.00,-12380.00,27.54,-278.00,-167.00,-171.00
621,2684.00,8164.00,-12284.00,27.59,-426.00,-157.00,-63.00
622,2756.00,8332.00,-12324.00,27.59,-405.00,-174.00,-21.00
623,2828.00,8364.00,-12180.00,27.49,-497.00,-188.00,41.00
624,2688.00,8280.00,-12460.00,27.59,-432.00,-193.00,-76.00
625,2828.00,8320.00,-12376.00,27.68,-181.00,-186.00,-225.00
626,2684.00,8288.00,-12272.00,27.68,-378.00,-204.00,-162.00
627,2660.00,8356.00,-12216.00,27.54,-520.00,-201.00,-69.00
628,2792.00,8248.00,-12344.00,27.54,-322.00,-169.00,-132.00
629,2832.00,8360.00,-12284.00,27.59,-364.00,-208.00,-136.00
630,2788.00,8236.00,-12076.00,27.59,-468.00,-171.00,-83.00
631,2632.00,8300.00,-12324.00,27.49,-361.00,-184.00,-106.00
632,2832.00,8384.00,-12224.00,27.54,-384.00,-99.00,-52.00
633,2852.00,8448.00,-12356.00,27.49,-374.00,-153.00,-105.00
634,2668.00,8216.00,-12228.00,27.64,-241.00,-178.00,-256.00
635,2656.00,8460.00,-12364.00,27.59,-361.00,-156.00,-165.00
636,2728.00,8384.00,-12196.00,27.54,-438.00,-127.00,-33.00
637,2680.00,8400.00,-12196.00,27.64,-313.00,-156.00,-134.00
638,2776.00,8296.00,-12268.00,27.54,-391.00,-180.00,-120.00
639,2744.00,8372.00,-12324.00,27.59,-384.00,-166.00,-96.00
640,2704.00,8352.00,-12340.00,27.59,-300.00,-152.00,-142.00
641,2716.00,8300.00,-12348.00,27.54,-247.00,-185.00,-187.00
642,2764.00,8372.00,-12120.00,27.54,-294.00,-164.00,-135.00
643,2724.00,8328.00,-12244.00,27.49,-233.00,-182.00,-205.00
644,2748.00,8408.00,-12380.00,27.68,-367.00,-161.00,-44.00
645,2804.00,8436.00,-12340.00,27.64,-435.00,-162.00,-71.00
646,2800.00,8344.00,-12320.00,27.54,-292.00,-159.00,-137.00
647,2784.00,8444.00,-12412.00,27.64,-332.00,-178.00,-115.00
648,2608.00,8300.00,-12236.00,27.68,-369.00,-176.00,-32.00
649,2852.00,8276.00,-12292.00,27.59,-344.00,-175.00,-89.00
650,2844.00,8356.00,-12156.00,27.59,-292.00,-185.00,-128.00
651,2756.00,8332.00,-12124.00,27.54,-250.00,-190.00,-200.00
652,2720.00,8356.00,-12412.00,27.54,-209.00,-155.00,-226.00
653,2732.00,8320.00,-12328.00,27.49,-440.00,-171.00,-67.00
654,2616.00,8296.00,-12316.00,27.59,-278.00,-160.00,-132.00
655,2592.00,8356.00,-12364.00,27.54,-249.00,-161.00,-153.00
656,2744.00,8440.00,-12336.00,27.64,-386.00,-175.00,-119.00
657,2824.00,8284.00,-12272.00,27.59,-324.00,-144.00,-119.00
658,2796.00,8352.00,-12436.00,27.54,-333.00,-160.00,-165.00
659,2992.00,8392.00,-12280.00,27.64,-371.00,-155.00,-152.00
660,2740.00,8260.00,-12424.00,27.59,-230.00,-186.00,-248.00
661,2872.00,8648.00,-12360.00,27.49,-627.00,-71.00,105.00
662,2620.00,8292.00,-12336.00,27.59,-235.00,-153.00,-209.00
663,2624.00,8280.00,-12284.00,27.54,-264.00,-112.00,-147.00
664,2712.00,8268.00,-12196.00,27.64,-429.00,-180.00,-86.00
665,2652.00,8388.00,-12252.00,27.59,-390.00,-118.00,-64.00
666,2712.00,8300.00,-12420.00,27.49,-364.00,-165.00,-133.00
667,2580.00,8268.00,-12188.00,27.59,-289.00,-172.00,-131.00
668,2684.00,8344.00,-12500.00,27.64,-292.00,-151.00,-201.00
669,2624.00,8316.00,-12260.00,27.59,-231.00,-149.00,-285.00
670,2820.00,8596.00,-12120.00,27.59,-162.00,-82.00,-285.00
671,2940.00,9276.00,-12180.00,27.68,-5.00,62.00,-310.00
672,3732.00,9684.00,-13972.00,27.64,-1264.00,-821.00,-2590.00
673,2168.00,9116.00,-14132.00,27.54,-4995.00,-4405.00,-4252.00
674,1280.00,10024.00,-12616.00,27.68,-15162.00,-7903.00,-6006.00
675,844.00,6044.00,-11968.00,27.54,-14782.00,-7263.00,-490.00
676,-1140.00,10460.00,-9412.00,27.59,-4398.00,-9223.00,167.00
677,-1884.00,16148.00,-5032.00,27.45,-10421.00,-12489.00,-257.00
678,-1480.00,11628.00,-4136.00,27.59,-10072.00,-6185.00,553.00
679,-2844.00,13344.00,-2592.00,27.73,3813.00,516.00,-2036.00
680,-2200.00,15184.00,-4232.00,27.59,6120.00,1581.00,-534.00
681,-2784.00,13188.00,-7416.00,27.64,8244.00,3105.00,-1453.00
682,-1128.00,15036.00,-12204.00,27.68,8275.00,3910.00,-601.00
683,-1272.00,11436.00,-11308.00,27.64,1720.00,4457.00,1182.00
684,-1848.00,10952.00,-10692.00,27.64,6070.00,3839.00,2811.00
685,-416.00,10228.00,-11128.00,27.59,11081.00,4021.00,1445.00
686,420.00,8320.00,-12912.00,27.64,19047.00,894.00,-176.00
687,-860.00,4488.00,-13240.00,27.64,12701.00,-1913.00,-2191.00
688,-1200.00,5456.00,-13024.00,27.54,3526.00,41.00,-307.00
689,-24.00,5620.00,-14716.00,27.54,-6733.00,1006.00,230.00
690,-824.00,6532.00,-13236.00,27.64,-13688.00,-156.00,1635.00
691,-140.00,12080.00,-9244.00,27.73,-19520.00,-10921.00,-4827.00
692,-1032.00,8984.00,-11296.00,27.54,-8316.00,-1301.00,-1147.00
693,112.00,11312.00,-10624.00,27.54,297.00,2445.00,74.00
694,348.00,10624.00,-9976.00,27.59,1875.00,4754.00,1516.00
695,-356.00,9260.00,-9444.00,27.59,3326.00,6870.00,1087.00
696,1708.00,10712.00,-9732.00,27.64,2355.00,7310.00,429.00
697,1560.00,6564.00,-13704.00,27.64,5223.00,4423.00,1502.00
698,4316.00,11312.00,-14620.00,27.59,-810.00,1808.00,-650.00
699,2584.00,7672.00,-10568.00,27.59,-1705.00,1613.00,-856.00
700,2312.00,8688.00,-11232.00,27.54,-903.00,586.00,-214.00
701,1776.00,8096.00,-10944.00,27.68,533.00,1483.00,273.00
702,4356.00,9708.00,-13480.00,27.59,-1310.00,305.00,367.00
703,3596.00,9600.00,-12180.00,27.59,-1965.00,-221.00,-1626.00
704,2380.00,8568.00,-10784.00,27.64,-2181.00,-744.00,-674.00
705,3276.00,9572.00,-10648.00,27.68,605.00,-152.00,-722.00
706,3052.00,9344.00,-11632.00,27.59,170.00,60.00,79.00
707,3064.00,8840.00,-12060.00,27.73,-883.00,-397.00,-230.00
708,3428.00,9500.00,-11892.00,27.59,-2553.00,-271.00,-196.00
709,3020.00,10036.00,-11504.00,27.64,-2369.00,-493.00,-1500.00
710,2744.00,9736.00,-10524.00,27.59,-1605.00,-674.00,-1483.00
711,1924.00,9700.00,-10236.00,27.59,-312.00,-789.00,-141.00
712,2636.00,10824.00,-10928.00,27.59,545.00,-104.00,240.00
713,1988.00,8776.00,-11404.00,27.68,1133.00,-557.00,-528.00
714,2008.00,9020.00,-11400.00,27.64,-362.00,-1142.00,497.00
715,2896.00,10284.00,-11244.00,27.54,-850.00,-872.00,-551.00
716,2284.00,10176.00,-11308.00,27.59,-276.00,-1371.00,-185.00
717,2332.00,9412.00,-11368.00,27.59,-230.00,-1894.00,-698.00
718,1664.00,9368.00,-11984.00,27.59,1278.00,-2219.00,-625.00
719,1344.00,8916.00,-11820.00,27.54,3023.00,-2655.00,170.00
720,1276.00,8088.00,-12152.00,27.59,8724.00,-3835.00,1757.00
721,716.00,6764.00,-13164.00,27.54,17437.00,-4992.00,2490.00
722,1052.00,6048.00,-14336.00,27.68,13583.00,-4240.00,123.00
723,-280.00,2820.00,-13788.00,27.54,12207.00,-2852.00,1202.00
724,-692.00,1772.00,-14332.00,27.68,10670.00,-1659.00,1427.00
725,-244.00,784.00,-15036.00,27.59,7189.00,-1124.00,-333.00
726,-980.00,-1112.00,-14860.00,27.59,9828.00,-1286.00,-8.00
727,-768.00,-2424.00,-14664.00,27.64,8699.00,-1148.00,-1050.00
728,-984.00,-3456.00,-14188.00,27.64,9130.00,-214.00,-1287.00
729,-712.00,-4512.00,-14048.00,27.59,5824.00,369.00,-724.00
730,-948.00,-4920.00,-14068.00,27.64,-101.00,743.00,-435.00
731,-216.00,-4080.00,-14972.00,27.54,-6981.00,1355.00,-576.00
732,-500.00,-3604.00,-14796.00,27.59,-14173.00,1006.00,-247.00
733,480.00,132.00,-15756.00,27.59,-19708.00,2067.00,-1238.00
734,-352.00,716.00,-14996.00,27.59,-24251.00,2937.00,-216.00
735,420.00,3132.00,-13584.00,27.59,-15349.00,3447.00,-235.00
736,624.00,5520.00,-13464.00,27.54,2119.00,242.00,-368.00
737,84.00,4388.00,-13536.00,27.68,106.00,873.00,733.00
738,1356.00,5792.00,-13112.00,27.54,-2216.00,705.00,298.00
739,1380.00,6348.00,-13604.00,27.64,-1355.00,292.00,1196.00
740,1852.00,7452.00,-13196.00,27.59,-589.00,736.00,394.00
741,1372.00,6832.00,-13536.00,27.59,-799.00,526.00,172.00
742,1816.00,6604.00,-14284.00,27.64,-2996.00,547.00,-99.00
743,1856.00,6764.00,-13788.00,27.59,-1198.00,116.00,-257.00
744,1344.00,6112.00,-13036.00,27.59,-1635.00,36.00,65.00
745,1604.00,6916.00,-12628.00,27.73,227.00,-115.00,-88.00
746,1836.00,6996.00,-13180.00,27.64,-350.00,69.00,3.00
747,1848.00,6936.00,-13344.00,27.59,-1289.00,-234.00,-14.00
748,1420.00,6760.00,-12864.00,27.68,-179.00,81.00,-218.00
749,1464.00,6784.00,-13192.00,27.68,851.00,195.00,255.00
750,2420.00,6960.00,-13400.00,27.64,-627.00,127.00,-22.00
751,1940.00,7272.00,-14460.00,27.64,-1281.00,-37.00,116.00
752,2880.00,8064.00,-12980.00,27.59,-1167.00,-315.00,-709.00
753,1584.00,6456.00,-12544.00,27.64,3015.00,76.00,259.00
754,1584.00,6076.00,-13712.00,27.49,2012.00,-432.00,187.00
755,1808.00,6560.00,-14032.00,27.49,-300.00,-812.00,-1078.00
756,1292.00,4808.00,-12236.00,27.64,-382.00,-468.00,-11.00
757,2008.00,5580.00,-13064.00,27.64,-831.00,-121.00,-707.00
758,436.00,9556.00,-14692.00,27.78,-8887.00,-763.00,-2227.00
759,3012.00,6396.00,-12820.00,27.64,-1121.00,1209.00,1115.00
760,1496.00,8332.00,-13464.00,27.68,-73.00,134.00,251.00
761,2112.00,7696.00,-13488.00,27.68,-159.00,426.00,-442.00
762,1828.00,7280.00,-13168.00,27.59,-1010.00,-127.00,-267.00
763,1876.00,7716.00,-12780.00,27.54,-953.00,-13.00,-130.00
764,2140.00,7728.00,-12184.00,27.64,441.00,457.00,22.00
765,1940.00,7404.00,-13028.00,27.68,-570.00,272.00,-22.00
766,2012.00,7916.00,-13052.00,27.59,-1065.00,277.00,-228.00
767,2212.00,7736.00,-12892.00,27.73,-1039.00,163.00,-64.00
768,2096.00,7804.00,-12444.00,27.64,-1869.00,49.00,73.00
769,2124.00,7976.00,-12660.00,27.73,-1759.00,148.00,264.00
770,2588.00,8240.00,-12408.00,27.64,-841.00,-18.00,-246.00
771,2240.00,8268.00,-12384.00,27.64,-319.00,172.00,-132.00
772,2080.00,8096.00,-12308.00,27.68,-536.00,-300.00,-36.00
773,2452.00,8080.00,-12796.00,27.68,-601.00,-147.00,-375.00
774,2320.00,8060.00,-12376.00,27.64,-924.00,-67.00,391.00
775,2488.00,8012.00,-12128.00,27.64,-1126.00,-78.00,116.00
776,2400.00,8576.00,-12740.00,27.64,-720.00,-88.00,-291.00
777,2308.00,8176.00,-12144.00,27.64,-365.00,-91.00,-269.00
778,2444.00,8512.00,-12520.00,27.68,-539.00,-154.00,-275.00
779,2136.00,8248.00,-12328.00,27.64,-470.00,-92.00,-204.00
780,2316.00,8416.00,-12652.00,27.64,-1228.00,-79.00,206.00
781,2508.00,8340.00,-12024.00,27.64,-1158.00,-310.00,-255.00
782,2220.00,8604.00,-11952.00,27.68,-275.00,-118.00,-601.00
783,2220.00,8368.00,-12292.00,27.64,-289.00,-108.00,-511.00
784,2128.00,8452.00,-12144.00,27.68,-1203.00,-225.00,123.00
785,2100.00,8564.00,-12156.00,27.68,-1550.00,-87.00,318.00
786,2420.00,8596.00,-11812.00,27.64,-790.00,-222.00,-447.00
787,2440.00,8976.00,-12216.00,27.59,-76.00,-95.00,-388.00
788,2400.00,9100.00,-12208.00,27.68,-402.00,-45.00,-167.00
789,2340.00,8616.00,-12164.00,27.68,-305.00,-90.00,-209.00
790,2268.00,8928.00,-12368.00,27.68,-640.00,-75.00,-149.00
791,2356.00,8700.00,-11968.00,27.64,-716.00,-169.00,-192.00
792,2184.00,8608.00,-11876.00,27.54,-693.00,-2.00,-146.00
793,2000.00,8596.00,-12364.00,27.64,52.00,-248.00,105.00
794,1940.00,8396.00,-12224.00,27.59,-1406.00,-559.00,874.00
795,1876.00,9040.00,-12148.00,27.54,-483.00,-186.00,321.00
796,1860.00,8520.00,-11568.00,27.73,-1457.00,-644.00,7.00
797,2072.00,9020.00,-12404.00,27.68,-1890.00,-684.00,605.00
798,2116.00,9144.00,-11672.00,27.64,-1054.00,-525.00,-103.00
799,2076.00,9524.00,-11444.00,27.59,-1149.00,-646.00,536.00
800,2440.00,8880.00,-11544.00,27.54,44.00,-327.00,497.00
801,2392.00,8700.00,-11796.00,27.59,228.00,416.00,197.00
802,1792.00,8744.00,-11364.00,27.64,266.00,-157.00,778.00
803,2816.00,9032.00,-12112.00,27.64,302.00,-117.00,710.00
804,2732.00,9024.00,-12568.00,27.54,1336.00,-987.00,-466.00
805,3068.00,11100.00,-12316.00,27.64,918.00,-674.00,-1179.00
806,1576.00,7672.00,-11660.00,27.68,1839.00,-87.00,-58.00
807,2224.00,8576.00,-12740.00,27.68,1599.00,-374.00,-191.00
808,1940.00,7108.00,-12536.00,27.54,976.00,-302.00,-776.00
809,2024.00,7976.00,-12628.00,27.64,1553.00,-23.00,-107.00
810,2004.00,7688.00,-12824.00,27.54,287.00,11.00,334.00
811,2228.00,7108.00,-12672.00,27.59,207.00,-245.00,-332.00
812,2180.00,8236.00,-13160.00,27.54,774.00,-199.00,-438.00
813,1932.00,7384.00,-12864.00,27.64,260.00,-516.00,-277.00
814,1940.00,7888.00,-12656.00,27.64,1488.00,-260.00,-911.00
815,2108.00,7368.00,-13240.00,27.68,320.00,-220.00,-496.00
816,2024.00,7284.00,-13196.00,27.68,65.00,126.00,-815.00
817,2024.00,7204.00,-12860.00,27.73,414.00,150.00,-634.00
818,1948.00,6836.00,-12968.00,27.64,-40.00,185.00,-291.00
819,1848.00,6744.00,-13108.00,27.64,7.00,-54.00,-104.00
820,1872.00,6872.00,-13180.00,27.59,-446.00,-267.00,-180.00
821,1848.00,7248.00,-13128.00,27.59,-506.00,-516.00,-141.00
822,2020.00,7384.00,-13464.00,27.68,-1227.00,-861.00,-191.00
823,1676.00,6500.00,-12
Sample,aX,aY,az,Temp,gX,gY,gz               