04.0-12.00,28.48,13481.00,4727.00,11693.00

203,-4824.00,2188.00,-16980.00,28.39,11957.00,2110.00,8490.00
204,-2160.00,-1204.00,-8212.00,28.48,13481.00,4727.00,11693.00
205,4.00
Sample,aX,aY,az,Temp,gX,gY,gz
1,-3056.00,5736.00,-22356.00,28.34,21849.00,10209.00,3886.00
2,-1212.00,3132.00,-23752.00,28.53,7383.00,4955.00,-1670.00
3,-1636.00,792.00,-16292.00,28.39,11122.00,1430.00,538.00
4,336.00,4376.00,-17496.00,28.48,4624.00,1788.00,71.00
5,-924.00,4944.00,-12996.00,28.44,-528.00,-887.00,-146.00
6,-1092.00,2088.00,-13536.00,28.44,324.00,-295.00,-1349.00
7,-2024.00,704.00,-14728.00,28.29,2147.00,-129.00,-1126.00
8,-3260.00,3296.00,-14896.00,28.39,-406.00,-2094.00,-1318.00
9,-2668.00,1956.00,-12052.00,28.39,-1297.00,-2140.00,-1151.00
10,-1484.00,1364.00,-17456.00,28.39,-3331.00,-5487.00,-4341.00
11,-2928.00,960.00,-13848.00,28.39,3178.00,701.00,-976.00
12,-1208.00,308.00,-14096.00,28.48,4998.00,5395.00,1142.00
13,-492.00,336.00,-15296.00,28.53,-1050.00,2258.00,240.00
14,-724.00,512.00,-14824.00,28.44,-839.00,53.00,332.00
15,-892.00,276.00,-14932.00,28.39,79.00,1637.00,89.00
16,-1044.00,160.00,-14856.00,28.44,-153.00,1950.00,895.00
17,-736.00,228.00,-15012.00,28.53,-544.00,249.00,530.00
18,-660.00,232.00,-15052.00,28.44,55.00,687.00,-175.00
19,-468.00,168.00,-15120.00,28.48,-306.00,-117.00,-500.00
20,-588.00,204.00,-14904.00,28.39,-508.00,-232.00,-365.00
21,-432.00,0.00,-15000.00,28.44,-293.00,584.00,-738.00
22,-584.00,96.00,-15144.00,28.48,-335.00,-271.00,-559.00
23,-668.00,-28.00,-15136.00,28.39,-116.00,-549.00,-645.00
24,-524.00,252.00,-15028.00,28.39,239.00,16.00,-116.00
25,-432.00,20.00,-14864.00,28.34,-32.00,-329.00,192.00
26,-328.00,-24.00,-15112.00,28.39,-98.00,371.00,350.00
27,-356.00,-4.00,-14776.00,28.44,387.00,-108.00,-554.00
28,-504.00,-208.00,-15176.00,28.44,72.00,-5375.00,-41.00
29,680.00,1104.00,-20276.00,28.44,4060.00,3785.00,613.00
30,560.00,-780.00,-13272.00,28.44,1607.00,3517.00,321.00
31,3792.00,-540.00,-15176.00,28.44,241.00,-391.00,351.00
32,2748.00,1208.00,-13776.00,28.44,-1307.00,-7825.00,-1344.00
33,-1464.00,-932.00,-13744.00,28.44,-1651.00,-9862.00,-3615.00
34,-3412.00,-2728.00,-11616.00,28.44,1742.00,-4688.00,-5602.00
35,-4332.00,-1652.00,-10600.00,28.53,-3078.00,-1078.00,-5035.00
36,-4816.00,-4116.00,-11876.00,28.39,-2019.00,5035.00,-4186.00
37,-3520.00,-3512.00,-13956.00,28.39,-1822.00,6427.00,-1458.00
38,-2596.00,-3044.00,-15244.00,28.48,-2594.00,5254.00,2618.00
39,-1184.00,324.00,-17236.00,28.39,-2611.00,1515.00,3382.00
40,-1116.00,692.00,-17120.00,28.39,-3026.00,-203.00,3100.00
41,-1480.00,-760.00,-12764.00,28.44,-3712.00,-253.00,4994.00
42,1740.00,-524.00,-13600.00,28.39,-4334.00,2680.00,4230.00
43,324.00,1564.00,-15456.00,28.44,-2273.00,532.00,2449.00
44,-140.00,2360.00,-15556.00,28.58,-1719.00,488.00,2595.00
45,324.00,2372.00,-16036.00,28.48,-1340.00,715.00,1700.00
46,560.00,2716.00,-15716.00,28.44,-1755.00,901.00,994.00
47,1128.00,2476.00,-15808.00,28.34,-1347.00,831.00,1004.00
48,1240.00,2176.00,-14884.00,28.34,250.00,879.00,-482.00
49,932.00,1836.00,-14040.00,28.44,-369.00,776.00,-792.00
50,880.00,2364.00,-14936.00,28.53,-83.00,314.00,-231.00
51,852.00,2088.00,-14768.00,28.39,-735.00,-161.00,421.00
52,996.00,2164.00,-14084.00,28.48,-646.00,47.00,351.00
53,1188.00,2596.00,-15176.00,28.44,-117.00,462.00,127.00
54,1312.00,2484.00,-15584.00,28.44,-642.00,397.00,266.00
55,1400.00,2320.00,-15052.00,28.44,-1714.00,113.00,656.00
56,1504.00,3296.00,-14748.00,28.44,-69.00,449.00,739.00
57,1904.00,2408.00,-14832.00,28.34,-290.00,576.00,428.00
58,2116.00,2168.00,-15304.00,28.44,-309.00,715.00,243.00
59,2148.00,3392.00,-15352.00,28.44,-821.00,379.00,-649.00
60,1980.00,2716.00,-15352.00,28.44,-1254.00,-735.00,-2433.00
61,2256.00,3756.00,-17088.00,28.39,-4958.00,-1864.00,-4624.00
62,792.00,4748.00,-16804.00,28.44,-7736.00,-5006.00,-7341.00
63,-1128.00,3892.00,-16560.00,28.34,-7957.00,-8341.00,-8616.00
64,-2636.00,3168.00,-13288.00,28.34,-1157.00,-8901.00,-6010.00
65,-3396.00,4796.00,-11728.00,28.34,-1067.00,-8517.00,-3288.00
66,-2844.00,5344.00,-11036.00,28.44,1142.00,-4318.00,-2724.00
67,-5100.00,3472.00,-12148.00,28.44,2913.00,-5520.00,-1216.00
68,-8300.00,3304.00,-11788.00,28.44,2272.00,-5717.00,886.00
69,-8140.00,2368.00,-9524.00,28.44,3802.00,-3859.00,2085.00
70,-4184.00,5016.00,-10348.00,28.39,8377.00,1271.00,3800.00
71,-1464.00,3372.00,-12256.00,28.44,1520.00,3770.00,2525.00
72,-1784.00,4224.00,-14532.00,28.48,-5031.00,3086.00,881.00
73,-3352.00,5212.00,-15644.00,28.44,-5564.00,2928.00,126.00
74,-4108.00,6120.00,-14500.00,28.48,-878.00,2174.00,-426.00
75,-3648.00,5188.00,-15444.00,28.34,-406.00,863.00,-3017.00
76,-4812.00,2220.00,-15156.00,28.58,-1280.00,1404.00,-2384.00
77,-6300.00,948.00,-14420.00,28.34,2971.00,2252.00,1992.00
78,-4512.00,1380.00,-11912.00,28.39,964.00,2727.00,3254.00
79,-1088.00,6096.00,-14248.00,28.34,3131.00,3448.00,4382.00
80,-2296.00,5480.00,-12648.00,28.39,-910.00,1522.00,2378.00
81,-2988.00,4440.00,-13808.00,28.34,-1266.00,1264.00,2413.00
82,-2348.00,4764.00,-14604.00,28.39,-236.00,1545.00,1730.00
83,-1464.00,3400.00,-15140.00,28.53,873.00,877.00,1640.00
84,-1144.00,3776.00,-14956.00,28.34,-2027.00,679.00,1196.00
85,-1400.00,4056.00,-14624.00,28.53,-1948.00,784.00,785.00
86,-1064.00,4544.00,-13980.00,28.34,-371.00,1133.00,868.00
87,-708.00,4268.00,-13772.00,28.39,-532.00,756.00,795.00
88,-612.00,4420.00,-14224.00,28.39,-1506.00,88.00,827.00
89,-784.00,4456.00,-13636.00,28.39,-1286.00,-519.00,724.00
90,-780.00,4468.00,-13456.00,28.44,-903.00,-912.00,384.00
91,-808.00,4292.00,-13840.00,28.44,-739.00,-1902.00,46.00
92,-1260.00,4636.00,-13568.00,28.44,-1219.00,-3209.00,-233.00
93,-1444.00,5128.00,-14380.00,28.44,1097.00,-3384.00,-454.00
94,-1912.00,4380.00,-14400.00,28.39,1517.00,-2682.00,-987.00
95,-2204.00,4236.00,-14224.00,28.39,968.00,-2212.00,-1097.00
96,-2756.00,4272.00,-14812.00,28.34,555.00,-1204.00,-1339.00
97,-2736.00,3624.00,-13880.00,28.48,-927.00,-1299.00,-1481.00
98,-2752.00,4288.00,-13592.00,28.39,-399.00,-1508.00,-1200.00
99,-3136.00,4008.00,-13756.00,28.39,-403.00,-1214.00,-872.00
100,-3340.00,4252.00,-13916.00,28.44,-519.00,-1121.00,-324.00
101,-3412.00,3912.00,-13976.00,28.44,-833.00,-996.00,-341.00
102,-3620.00,4108.00,-14212.00,28.44,-107.00,-873.00,-194.00
103,-3720.00,3948.00,-13768.00,28.48,-522.00,-811.00,37.00
104,-3564.00,4024.00,-13640.00,28.44,-286.00,-273.00,-116.00
105,-3564.00,4096.00,-13820.00,28.48,38.00,146.00,-103.00
106,-3668.00,3920.00,-13660.00,28.44,20.00,-129.00,171.00
107,-3400.00,3940.00,-13880.00,28.53,-15.00,-79.00,247.00
108,-3680.00,3884.00,-13732.00,28.44,-68.00,-447.00,289.00
109,-3576.00,3788.00,-14144.00,28.39,57.00,-238.00,390.00
110,-3256.00,3696.00,-14200.00,28.39,-353.00,-64.00,319.00
111,-3232.00,3752.00,-13792.00,28.44,-225.00,189.00,13.00
112,-3292.00,3832.00,-14128.00,28.34,-366.00,241.00,-121.00
113,-3412.00,3984.00,-13824.00,28.34,-332.00,-4.00,-216.00
114,-3316.00,3860.00,-13964.00,28.39,-246.00,-206.00,-204.00
115,-3332.00,3900.00,-13936.00,28.39,-305.00,-313.00,-126.00
116,-3352.00,3828.00,-13872.00,28.44,-268.00,-251.00,-111.00
117,-3292.00,4036.00,-13924.00,28.44,-388.00,-180.00,-119.00
118,-3308.00,3732.00,-14008.00,28.48,-322.00,-173.00,-144.00
119,-3344.00,3892.00,-14132.00,28.48,-484.00,-169.00,-42.00
120,-3288.00,3884.00,-13756.00,28.34,-390.00,-172.00,-117.00
121,-3396.00,3804.00,-14064.00,28.29,-301.00,-117.00,-111.00
122,-3172.00,3940.00,-13740.00,28.34,-338.00,-158.00,-192.00
123,-3312.00,3912.00,-13960.00,28.34,-392.00,-325.00,-53.00
124,-3324.00,3856.00,-13956.00,28.44,-415.00,-358.00,-115.00
125,-3276.00,3876.00,-13916.00,28.44,-351.00,-255.00,-120.00
126,-3224.00,3888.00,-13932.00,28.39,-369.00,-255.00,-104.00
127,-3272.00,3932.00,-13884.00,28.39,-323.00,-227.00,-215.00
128,-3280.00,3952.00,-13840.00,28.44,-415.00,-371.00,-156.00
129,-3284.00,3876.00,-13984.00,28.39,-399.00,-301.00,-250.00
130,-3448.00,3884.00,-13964.00,28.48,-436.00,-349.00,-165.00
131,-3440.00,3900.00,-14016.00,28.44,-346.00,-285.00,-172.00
132,-3204.00,3840.00,-13760.00,28.34,-436.00,-229.00,-208.00
133,-3436.00,3816.00,-13712.00,28.39,-318.00,-273.00,-151.00
134,-3168.00,3796.00,-14080.00,28.39,-294.00,-122.00,-182.00
135,-3448.00,4020.00,-14028.00,28.44,-467.00,-114.00,-160.00
136,-3360.00,4152.00,-13928.00,28.34,-426.00,-84.00,-97.00
137,-3436.00,4016.00,-13896.00,28.34,-274.00,-147.00,-219.00
138,-3404.00,3904.00,-13944.00,28.34,-191.00,-259.00,-189.00
139,-3396.00,3912.00,-13972.00,28.44,50.00,-464.00,15.00
140,-3244.00,4012.00,-14040.00,28.34,-413.00,-109.00,-98.00
141,-3272.00,3860.00,-14188.00,28.48,-124.00,216.00,-37.00
142,-3372.00,3676.00,-13944.00,28.39,296.00,576.00,-157.00
143,-2952.00,3756.00,-14536.00,28.44,206.00,856.00,-155.00
144,-3200.00,3672.00,-13936.00,28.39,-643.00,650.00,-290.00
145,-3000.00,3840.00,-13840.00,28.34,-218.00,212.00,-373.00
146,-2936.00,3808.00,-14092.00,28.48,-84.00,-160.00,-382.00
147,-3088.00,3720.00,-14188.00,28.29,-205.00,-581.00,-258.00
148,-3108.00,3456.00,-14056.00,28.53,14.00,-828.00,-248.00
149,-3136.00,3716.00,-14420.00,28.39,-153.00,-390.00,-91.00
150,-2908.00,3508.00,-14252.00,28.44,-283.00,414.00,-145.00
151,-2900.00,3424.00,-14240.00,28.39,-387.00,1249.00,89.00
152,-2564.00,3892.00,-14348.00,28.34,-885.00,1999.00,455.00
153,-2028.00,3488.00,-13624.00,28.44,-271.00,2044.00,734.00
154,-1772.00,3684.00,-14164.00,28.34,452.00,1841.00,461.00
155,-2148.00,3484.00,-14076.00,28.29,-149.00,475.00,313.00
156,-1760.00,3816.00,-14736.00,28.29,-199.00,-394.00,282.00
157,-1700.00,3192.00,-14628.00,28.44,-330.00,-375.00,-25.00
158,-1492.00,3340.00,-14180.00,28.44,-168.00,6.00,-503.00
159,-1740.00,3704.00,-14332.00,28.34,-225.00,-88.00,-618.00
160,-1756.00,3472.00,-14308.00,28.39,-419.00,-423.00,-657.00
161,-1852.00,3780.00,-14468.00,28.34,-1008.00,-1041.00,-594.00
162,-1956.00,3768.00,-14484.00,28.34,-554.00,-971.00,-518.00
163,-2180.00,3464.00,-13512.00,28.34,200.00,-1703.00,-767.00
164,-2744.00,3548.00,-15060.00,28.44,-1212.00,-1474.00,-391.00
165,-2140.00,3840.00,-14392.00,28.34,-1192.00,-435.00,-192.00
166,-2208.00,3564.00,-13952.00,28.34,-5.00,150.00,-490.00
167,-2404.00,3840.00,-14196.00,28.34,196.00,-50.00,-558.00
168,-2264.00,3624.00,-14624.00,28.39,-468.00,-241.00,-596.00
169,-2944.00,3864.00,-13612.00,28.44,-958.00,-2049.00,-843.00
170,-3140.00,2972.00,-13580.00,28.34,-683.00,-2326.00,-465.00
171,-3060.00,3576.00,-14752.00,28.34,-248.00,-1060.00,-265.00
172,-3020.00,3472.00,-14280.00,28.34,-1767.00,147.00,-250.00
173,-2868.00,4052.00,-12956.00,28.29,-796.00,206.00,-632.00
174,-3180.00,4340.00,-13760.00,28.34,805.00,109.00,-159.00
175,-3048.00,3416.00,-14472.00,28.29,608.00,313.00,179.00
176,-2776.00,3640.00,-14628.00,28.39,-621.00,726.00,352.00
177,-2568.00,3788.00,-14124.00,28.34,-964.00,271.00,141.00
178,-2560.00,3796.00,-13640.00,28.29,-474.00,-83.00,-161.00
179,-2760.00,3676.00,-14236.00,28.44,-33.00,-56.00,-338.00
180,-2676.00,3620.00,-13988.00,28.39,-441.00,107.00,-484.00
181,-2528.00,3904.00,-14104.00,28.44,60.00,-25.00,-444.00
182,-2844.00,3792.00,-14032.00,28.25,116.00,-232.00,-122.00
183,-2316.00,3460.00,-15820.00,28.39,-205.00,789.00,396.00
184,-2436.00,3692.00,-13288.00,28.34,-1598.00,148.00,42.00
185,-2484.00,3936.00,-14224.00,28.39,-193.00,565.00,-26.00
186,-2200.00,3572.00,-13964.00,28.39,-1.00,200.00,72.00
187,-2172.00,3384.00,-14828.00,28.39,167.00,600.00,20.00
188,-1980.00,3664.00,-14024.00,28.48,-607.00,351.00,-36.00
189,-1984.00,3752.00,-14352.00,28.34,-694.00,61.00,-22.00
190,-2204.00,3716.00,-13900.00,28.34,-749.00,-381.00,-12.00
191,-1832.00,3876.00,-14680.00,28.48,-831.00,-88.00,201.00
192,-1796.00,3768.00,-13960.00,28.44,-466.00,-73.00,-275.00
193,-2048.00,3836.00,-14220.00,28.39,241.00,-399.00,-478.00
194,-1996.00,3592.00,-14448.00,28.25,-252.00,-215.00,-443.00
195,-2040.00,3748.00,-14104.00,28.34,-28.00,-317.00,-744.00
196,-2280.00,3652.00,-14300.00,28.39,-203.00,-945.00,-575.00
197,-2292.00,3808.00,-13944.00,28.34,-216.00,-1443.00,-703.00
198,-2492.00,3604.00,-14436.00,28.44,224.00,-1534.00,-676.00
199,-2624.00,3596.00,-14484.00,28.39,-49.00,-1364.00,-485.00
200,-2840.00,3724.00,-14560.00,28.39,-626.00,-889.00,-306.00
201,-2724.00,3472.00,-13972.00,28.34,-502.00,-537.00,-312.00
202,-2988.00,3652.00,-13956.00,28.34,275.00,-469.00,-426.00
203,-3068.00,3536.00,-14128.00,28.29,-140.00,-792.00,81.00
204,-2836.00,3188.00,-14252.00,28.48,-496.00,-806.00,275.00
205,-3032.00,3548.00,-14132.00,28.25,-553.00,-610.00,83.00
206,-3088.00,3744.00,-14220.00,28.39,-279.00,-375.00,-145.00
207,-3072.00,3684.00,-14140.00,28.39,-213.00,-108.00,-285.00
208,-3148.00,3612.00,-14320.00,28.44,-297.00,-173.00,-182.00
209,-3092.00,3624.00,-14236.00,28.29,-988.00,-253.00,-29.00
210,-3176.00,3592.00,-14124.00,28.34,-561.00,-382.00,46.00
211,-3084.00,3620.00,-13804.00,28.39,-513.00,-358.00,144.00
212,-2964.00,3728.00,-14436.00,28.34,-471.00,217.00,274.00
213,-3148.00,3820.00,-14476.00,28.44,-770.00,1057.00,512.00
214,-2484.00,3600.00,-14528.00,28.34,-1945.00,2467.00,720.00
215,-2096.00,4080.00,-13732.00,28.29,-1466.00,3108.00,418.00
216,-1968.00,4152.00,-13732.00,28.39,-734.00,2976.00,717.00
217,-1132.00,4244.00,-13740.00,28.44,-129.00,2415.00,955.00
218,-1120.00,3728.00,-13548.00,28.29,199.00,1359.00,620.00
219,-964.00,4368.00,-14672.00,28.39,133.00,545.00,733.00
220,-660.00,4336.00,-14140.00,28.48,-435.00,273.00,1040.00
221,-760.00,4432.00,-14620.00,28.34,-167.00,-98.00,1494.00
222,-480.00,3560.00,-14432.00,28.39,-539.00,90.00,1424.00
223,-244.00,3992.00,-14332.00,28.39,-468.00,34.00,943.00
224,-312.00,4624.00,-14596.00,28.39,-1349.00,123.00,584.00
225,-144.00,3884.00,-13332.00,28.34,-716.00,-896.00,172.00
226,-524.00,4252.00,-14360.00,28.34,-38.00,-1313.00,-352.00
227,-596.00,4388.00,-14336.00,28.44,-828.00,-1634.00,-663.00
228,-752.00,4020.00,-13884.00,28.39,-410.00,-1693.00,-916.00
229,-1004.00,4220.00,-14096.00,28.44,110.00,-1721.00,-1378.00
230,-1244.00,4084.00,-14336.00,28.44,399.00,-1620.00,-1483.00
231,-1640.00,4400.00,-14404.00,28.34,-509.00,-2067.00,-1273.00
232,-1696.00,3968.00,-14356.00,28.34,-719.00,-1911.00,-1178.00
233,-2036.00,4148.00,-14208.00,28.39,-1701.00,-1857.00,-1218.00
234,-2424.00,4112.00,-14100.00,28.29,-1162.00,-982.00,-1242.00
235,-2616.00,4456.00,-13896.00,28.34,-1552.00,-747.00,-1161.00
236,-2540.00,4520.00,-14016.00,28.25,-580.00,-370.00,-1067.00
237,-2608.00,4668.00,-13804.00,28.44,-367.00,-287.00,-785.00
238,-2604.00,4620.00,-13924.00,28.34,-164.00,-340.00,-493.00
239,-2816.00,4560.00,-13868.00,28.29,-441.00,-318.00,-274.00
240,-2696.00,4764.00,-14116.00,28.34,-463.00,-267.00,-60.00
241,-2568.00,4480.00,-13584.00,28.39,-501.00,-187.00,-207.00
242,-2868.00,4540.00,-13824.00,28.39,-234.00,-16.00,-304.00
243,-2732.00,4652.00,-13956.00,28.44,-164.00,-28.00,-208.00
244,-2604.00,5652.00,-13964.00,28.39,-560.00,-1.00,-43.00
245,-2572.00,4552.00,-13992.00,28.39,-380.00,24.00,-122.00
246,-2684.00,4476.00,-13884.00,28.44,-348.00,50.00,-218.00
247,-2504.00,4436.00,-13944.00,28.34,-350.00,-14.00,-217.00
248,-2412.00,4564.00,-13964.00,28.39,-482.00,-62.00,-200.00
249,-2432.00,4612.00,-13816.00,28.34,-361.00,-117.00,-157.00
250,-2348.00,4564.00,-14012.00,28.34,-332.00,-44.00,-240.00
251,-2408.00,4512.00,-13884.00,28.29,-483.00,-61.00,-249.00
252,-2488.00,4520.00,-13856.00,28.34,-268.00,-153.00,-23?
Sample,aX,aY,az,Temp,gX,gY,gz
1,-2860.00,4604.00,-13988.00,28.34,-396.00,-433.00,-173.00
2,-2892.00,2824.00,-14180.00,28.29,-97.00,-192.00,-12.00
3,-3052.00,4704.00,-13808.00,28.34,-917.00,-277.00,-161.00
4,-2712.00,4472.00,-13932.00,28.39,-942.00,-478.00,-53.00
5,-2800.00,4508.00,-13396.00,28.34,-915.00,-439.00,-155.00
6,-2828.00,4728.00,-13964.00,28.29,-344.00,-225.00,-383.00
7,-2636.00,4172.00,-13728.00,28.29,-242.00,-352.00,-269.00
8,-2716.00,4852.00,-13760.00,28.34,-220.00,-207.00,-318.00
9,-2708.00,4516.00,-13924.00,28.34,-354.00,-103.00,-221.00
10,-2700.00,4620.00,-13752.00,28.39,-183.00,-107.00,-220.00
11,-2708.00,4608.00,-13784.00,28.25,122.00,-13.00,-321.00
12,-2772.00,4596.00,-13888.00,28.39,143.00,146.00,-389.00
13,-2788.00,4516.00,-13800.00,28.29,-137.00,-179.00,-194.00
14,-2660.00,4516.00,-13888.00,28.34,67.00,-420.00,-41.00
15,-2872.00,4464.00,-14120.00,28.34,210.00,-302.00,-155.00
16,-2728.00,4356.00,-14316.00,28.25,-469.00,-331.00,-44.00
17,-2664.00,4348.00,-13764.00,28.29,-550.00,-130.00,-128.00
18,-2788.00,4392.00,-13844.00,28.34,-283.00,-111.00,-195.00
19,-2688.00,4440.00,-13824.00,28.29,-183.00,-61.00,-193.00
20,-2804.00,4348.00,-14024.00,28.34,-198.00,-126.00,-219.00
21,-2792.00,4408.00,-13904.00,28.25,-161.00,-344.00,-266.00
22,-2716.00,3744.00,-14176.00,28.39,-302.00,-531.00,-132.00
23,-2804.00,4164.00,-13868.00,28.39,-132.00,-437.00,-251.00
24,-2864.00,4408.00,-14304.00,28.44,32.00,-595.00,-136.00
25,-2720.00,4088.00,-13832.00,28.34,-117.00,-700.00,-240.00
26,-2948.00,4096.00,-14040.00,28.29,388.00,-943.00,-483.00
27,-2876.00,6216.00,-13672.00,28.34,1633.00,-1002.00,-974.00
28,-3324.00,3684.00,-13572.00,28.29,1964.00,-2279.00,-1309.00
29,-3948.00,3464.00,-14384.00,28.34,1413.00,-2566.00,-723.00
30,-3984.00,3580.00,-15140.00,28.44,-482.00,-1486.00,196.00
31,-3944.00,3636.00,-13760.00,28.39,-2192.00,-604.00,239.00
32,-3732.00,3440.00,-13460.00,28.34,-1535.00,-23.00,-87.00
33,-3860.00,3672.00,-13528.00,28.39,-652.00,145.00,-358.00
34,-3892.00,3604.00,-13844.00,28.44,0.00,158.00,-443.00
35,-4132.00,3772.00,-13584.00,28.29,-182.00,-381.00,-124.00
36,-3868.00,3756.00,-13812.00,28.25,24.00,-494.00,-51.00
37,-4040.00,3552.00,-14264.00,28.34,-254.00,-344.00,-69.00
38,-3980.00,3652.00,-14056.00,28.29,-414.00,-260.00,-81.00
39,-3900.00,3572.00,-13920.00,28.39,-426.00,-223.00,-120.00
40,-4004.00,3424.00,-13808.00,28.25,-420.00,-205.00,-237.00
41,-4116.00,3596.00,-13920.00,28.39,-483.00,-332.00,-229.00
42,-4160.00,3532.00,-13632.00,28.34,-231.00,-488.00,-133.00
43,-3824.00,3524.00,-13764.00,28.39,-103.00,-276.00,-289.00
44,-4132.00,2988.00,-13996.00,28.34,-392.00,-496.00,-89.00
45,-3960.00,3560.00,-13980.00,28.34,-159.00,-274.00,-291.00
46,-4148.00,3396.00,-14096.00,28.39,-388.00,-196.00,-143.00
47,-3880.00,3484.00,-14012.00,28.34,-571.00,215.00,-183.00
48,-3876.00,3444.00,-13868.00,28.29,-443.00,258.00,-499.00
49,-3908.00,3512.00,-13924.00,28.34,-110.00,-11.00,-483.00
50,-3800.00,3404.00,-13856.00,28.34,-393.00,-139.00,-359.00
51,-3760.00,3288.00,-13672.00,28.29,-278.00,-266.00,-370.00
52,-3864.00,3416.00,-14044.00,28.34,-9.00,-264.00,-404.00
53,-3932.00,3352.00,-14016.00,28.20,139.00,-244.00,-403.00
54,-3936.00,3356.00,-14256.00,28.39,-101.00,29.00,-242.00
55,-3796.00,3400.00,-14088.00,28.39,-552.00,378.00,-46.00
56,-3908.00,3272.00,-14128.00,28.20,-545.00,538.00,-61.00
57,-3652.00,3432.00,-14228.00,28.25,-653.00,553.00,21.00
58,-3484.00,3316.00,-14068.00,28.34,-496.00,525.00,29.00
59,-3460.00,3404.00,-13928.00,28.29,-489.00,220.00,-108.00
60,-3308.00,3480.00,-13952.00,28.25,-286.00,-182.00,-193.00
61,-3264.00,3308.00,-14056.00,28.39,-316.00,-364.00,-156.00
62,-3332.00,3472.00,-14200.00,28.34,-127.00,-355.00,-240.00
63,-3344.00,3316.00,-14100.00,28.29,-293.00,-309.00,-202.00
64,-3428.00,3376.00,-14164.00,28.34,-281.00,-186.00,-202.00
65,-3380.00,3384.00,-14124.00,28.29,-296.00,-133.00,-245.00
66,-3436.00,3400.00,-14260.00,28.34,-233.00,-139.00,-322.00
67,-3420.00,3368.00,-14016.00,28.29,-178.00,-203.00,-301.00
68,-3368.00,3296.00,-14156.00,28.25,-149.00,-210.00,-273.00
69,-3420.00,3364.00,-14044.00,28.25,-184.00,-370.00,-242.00
70,-3484.00,3304.00,-14196.00,28.29,-194.00,-337.00,-119.00
71,-3316.00,3280.00,-14120.00,28.34,-218.00,-146.00,-265.00
72,-3432.00,3252.00,-14208.00,28.20,-245.00,-58.00,-329.00
73,-3364.00,3212.00,-13984.00,28.25,-194.00,-80.00,-306.00
74,-3444.00,3152.00,-14132.00,28.34,-290.00,-146.00,-245.00
75,-3344.00,3096.00,-14172.00,28.29,-228.00,-232.00,-256.00
76,-3408.00,3128.00,-14296.00,28.44,-214.00,-251.00,-271.00
77,-3480.00,3112.00,-14184.00,28.39,-274.00,-195.00,-229.00
78,-3272.00,3112.00,-14132.00,28.34,-308.00,-131.00,-278.00
79,-3268.00,3084.00,-14236.00,28.29,-274.00,-115.00,-316.00
80,-3356.00,3064.00,-14260.00,28.25,-353.00,-105.00,-264.00
81,-3268.00,3144.00,-14240.00,28.29,-404.00,-176.00,-217.00
82,-3400.00,3160.00,-14104.00,28.25,-276.00,-139.00,-341.00
83,-3268.00,3232.00,-14056.00,28.29,-289.00,-193.00,-279.00
84,-3272.00,3196.00,-14164.00,28.34,-324.00,-214.00,-262.00
85,-3428.00,3044.00,-14224.00,28.29,-359.00,-217.00,-236.00
86,-3332.00,2960.00,-14212.00,28.29,-382.00,-158.00,-263.00
87,-3320.00,3040.00,-14236.00,28.34,-294.00,-136.00,-257.00
88,-3216.00,3080.00,-14156.00,28.20,-268.00,-134.00,-246.00
89,-3404.00,3104.00,-14288.00,28.25,-295.00,-125.00,-273.00
90,-3260.00,3052.00,-14212.00,28.20,-374.00,-91.00,-265.00
91,-3280.00,3080.00,-14052.00,28.29,-375.00,-169.00,-277.00
92,-3372.00,3020.00,-14200.00,28.39,-368.00,-245.00,-256.00
93,-3240.00,2980.00,-14172.00,28.25,-364.00,-262.00,-284.00
94,-3284.00,2984.00,-14252.00,28.20,-317.00,-242.00,-255.00
95,-3500.00,3008.00,-14224.00,28.34,-363.00,-243.00,-230.00
96,-3324.00,3012.00,-13988.00,28.39,-362.00,-232.00,-250.00
97,-3344.00,3020.00,-14220.00,28.25,-384.00,-208.00,-225.00
98,-3356.00,3112.00,-13972.00,28.25,-399.00,-257.00,-229.00
99,-3500.00,3312.00,-14204.00,28.34,-433.00,-346.00,-187.00
100,-3384.00,2944.00,-14164.00,28.29,-420.00,-315.00,-209.00
101,-3256.00,3108.00,-14036.00,28.25,-399.00,-261.00,-226.00
102,-3384.00,3128.00,-14280.00,28.25,-372.00,-230.00,-207.00
103,-3336.00,3096.00,-14188.00,28.20,-365.00,-109.00,-281.00
104,-3344.00,3176.00,-14104.00,28.39,-376.00,-241.00,-220.00
105,-3440.00,3164.00,-14248.00,28.34,-482.00,-268.00,-160.00
106,-3360.00,3108.00,-14100.00,28.34,-368.00,-199.00,-222.00
107,-3444.00,3068.00,-14024.00,28.29,-371.00,-172.00,-245.00
108,-3336.00,3080.00,-14012.00,28.34,-311.00,-175.00,-284.00
109,-3316.00,3812.00,-14168.00,28.34,-596.00,-449.00,219.00
110,-3312.00,3176.00,-14060.00,28.29,-439.00,-218.00,-200.00
111,-3400.00,3128.00,-14236.00,28.34,-412.00,-174.00,-218.00
112,-3344.00,3120.00,-14056.00,28.25,-370.00,-216.00,-271.00
113,-3368.00,3184.00,-14072.00,28.29,-408.00,-218.00,-247.00
114,-3328.00,3072.00,-14148.00,28.29,-377.00,-202.00,-244.00
115,-3336.00,3168.00,-14156.00,28.34,-333.00,-230.00,-234.00
116,-3352.00,3200.00,-14288.00,28.25,-351.00,-246.00,-225.00
117,-3284.00,3144.00,-14240.00,28.29,-309.00,-214.00,-274.00
118,-3352.00,3028.00,-14096.00,28.29,-368.00,-268.00,-229.00
119,-3456.00,3268.00,-14412.00,28.34,-390.00,-231.00,-225.00
120,-3348.00,2976.00,-14136.00,28.34,-473.00,-254.00,-203.00
121,-3412.00,3216.00,-14080.00,28.20,-401.00,-232.00,-191.00
122,-3340.00,3052.00,-14060.00,28.29,-378.00,-170.00,-276.00
123,-3328.00,3252.00,-14288.00,28.25,-387.00,-87.00,-250.00
124,-3288.00,3012.00,-14076.00,28.39,-569.00,-123.00,-166.00
125,-3236.00,3180.00,-14012.00,28.25,-378.00,10.00,-230.00
126,-3256.00,3128.00,-14064.00,28.39,-351.00,6.00,-328.00
127,-3160.00,3144.00,-14168.00,28.29,-327.00,-44.00,-343.00
128,-3196.00,3192.00,-13968.00,28.34,-360.00,-58.00,-377.00
129,-3208.00,3252.00,-14008.00,28.20,-269.00,-273.00,-323.00
130,-3136.00,3164.00,-14204.00,28.20,-289.00,-286.00,-310.00
131,-3248.00,3192.00,-14240.00,28.25,-399.00,-231.00,-245.00
132,-3204.00,3112.00,-14320.00,28.29,-364.00,-213.00,-254.00
133,-3248.00,3236.00,-14012.00,28.34,-317.00,-253.00,-299.00
134,-3232.00,3140.00,-14308.00,28.25,-292.00,-334.00,-293.00
135,-3304.00,3016.00,-14408.00,28.20,-299.00,-309.00,-225.00
136,-3372.00,3124.00,-14176.00,28.29,-358.00,-205.00,-200.00
137,-3272.00,3112.00,-14232.00,28.25,-382.00,-162.00,-208.00
138,-3236.00,3196.00,-14016.00,28.15,-312.00,-184.00,-262.00
139,-3212.00,3216.00,-14176.00,28.39,-372.00,-246.00,-181.00
140,-3348.00,3076.00,-14308.00,28.20,-336.00,-219.00,-219.00
141,-3220.00,3000.00,-14204.00,28.25,-375.00,-148.00,-181.00
142,-3324.00,3036.00,-14168.00,28.15,-362.00,-143.00,-249.00
143,-3240.00,3084.00,-14208.00,28.29,-478.00,-165.00,-127.00
144,-3392.00,3704.00,-14316.00,28.29,-269.00,-178.00,-62.00
145,-2992.00,3100.00,-14352.00,28.34,-591.00,217.00,-137.00
146,-3120.00,3228.00,-13932.00,28.29,91.00,414.00,-476.00
147,-2804.00,3460.00,-14392.00,28.29,-194.00,-45.00,-812.00
148,-2928.00,2704.00,-13716.00,28.25,-135.00,-1089.00,-2012.00
149,-3288.00,3536.00,-14856.00,28.34,567.00,-1985.00,-3276.00
150,-4408.00,2136.00,-13732.00,28.25,-984.00,-2796.00,-3716.00
151,-4020.00,3448.00,-14624.00,28.34,-2947.00,-1241.00,-3545.00
152,-4792.00,4248.00,-15880.00,28.29,-4122.00,3545.00,-2022.00
153,-3820.00,3408.00,-14904.00,28.29,-9395.00,7504.00,684.00
154,-2528.00,12732.00,-11896.00,28.39,-13300.00,8583.00,2744.00
155,-1328.00,5924.00,-15688.00,28.29,-6469.00,9693.00,5556.00
156,864.00,7464.00,-17516.00,28.20,-7174.00,9962.00,6090.00
157,3128.00,6660.00,-12048.00,28.25,-5526.00,10913.00,5745.00
158,4160.00,4804.00,-7784.00,28.15,-5996.00,12141.00,4451.00
159,11016.00,10516.00,-16232.00,28.39,4738.00,15707.00,3885.00
160,11548.00,11000.00,-10696.00,28.25,-4319.00,13035.00,476.00
161,8696.00,8560.00,-3816.00,28.34,-11777.00,6398.00,1743.00
162,7076.00,7368.00,-5584.00,28.20,-2632.00,8128.00,5474.00
163,9828.00,8800.00,-9240.00,28.25,-3664.00,9103.00,8426.00
164,10084.00,8884.00,-3896.00,28.29,-6828.00,5777.00,10473.00
165,13260.00,6640.00,-6804.00,28.20,-8567.00,3518.00,11722.00
166,11040.00,8756.00,-5412.00,28.25,-5058.00,-1770.00,5353.00
167,13376.00,5900.00,-4272.00,28.25,-9885.00,-7633.00,-1942.00
168,17828.00,5744.00,-2856.00,28.34,-5269.00,-5047.00,-1356.00
169,15488.00,4752.00,-4276.00,28.25,-6319.00,-2490.00,-465.00
170,12124.00,4456.00,-4008.00,28.34,-5149.00,-2025.00,-2696.00
171,14568.00,8252.00,-3132.00,28.25,-14560.00,-4247.00,1037.00
172,12768.00,8680.00,-1468.00,28.25,-14838.00,-276.00,3745.00
173,11688.00,8124.00,-192.00,28.25,-523.00,4665.00,5488.00
174,12960.00,9764.00,-1544.00,28.20,5783.00,7867.00,8084.00
175,16160.00,10508.00,-2564.00,28.34,10145.00,7536.00,9590.00
176,16392.00,11308.00,-2716.00,28.25,4241.00,694.00,5344.00
177,16008.00,7384.00,-552.00,28.20,-10565.00,-7425.00,-4490.00
178,16980.00,3392.00,-1000.00,28.25,-11307.00,-6721.00,-10228.00
179,15676.00,3608.00,-1796.00,28.25,-2015.00,-1836.00,-2987.00
180,14160.00,7176.00,-1968.00,28.25,-1210.00,-248.00,3491.00
181,12968.00,7940.00,-644.00,28.25,-3785.00,-1305.00,3069.00
182,13680.00,9412.00,-2724.00,28.25,-2124.00,154.00,1725.00
183,13732.00,9108.00,-1532.00,28.20,1123.00,711.00,613.00
184,13332.00,8420.00,-1176.00,28.29,-524.00,-965.00,-1686.00
185,14348.00,7604.00,-500.00,28.29,-2078.00,760.00,-1589.00
186,15356.00,8460.00,-804.00,28.25,5024.00,5393.00,1178.00
187,16568.00,9080.00,-556.00,28.25,5362.00,3171.00,-543.00
188,15136.00,6936.00,-152.00,28.20,493.00,686.00,-3178.00
189,14124.00,5940.00,-776.00,28.29,2441.00,1531.00,-904.00
190,15144.00,7168.00,-168.00,28.34,2740.00,1516.00,371.00
191,14964.00,7768.00,-208.00,28.15,1586.00,660.00,348.00
192,13540.00,7328.00,-436.00,28.25,-836.00,289.00,-1056.00
193,13876.00,7136.00,-552.00,28.29,258.00,1045.00,-104.00
194,16132.00,8048.00,-168.00,28.20,1211.00,2986.00,1513.00
195,16848.00,8644.00,-1352.00,28.34,4675.00,4410.00,2802.00
196,14112.00,8052.00,-1580.00,28.29,-359.00,-185.00,388.00
197,15668.00,7236.00,-236.00,28.29,-145.00,-1269.00,-1219.00
198,16356.00,6916.00,760.00,28.29,2143.00,-389.00,-783.00
199,15888.00,6612.00,828.00,28.29,1583.00,-563.00,-1235.00
200,16128.00,5664.00,864.00,28.25,-77.00,-987.00,-1674.00
201,15608.00,6052.00,128.00,28.15,-4633.00,-1971.00,-1679.00
202,14516.00,7260.00,-120.00,28.20,-11197.00,-5264.00,-1563.00
203,14760.00,8236.00,-1852.00,28.25,-25515.00,-6273.00,-3643.00
204,13768.00,7872.00,1432.00,28.25,-5069.00,-1998.00,-2225.00
205,14668.00,9344.00,68.00,28.25,3507.00,849.00,574.00
206,13672.00,9392.00,1664.00,28.29,-621.00,-1156.00,-321.00
207,13944.00,8496.00,936.00,28.25,-2390.00,-1646.00,-974.00
208,15016.00,7740.00,1408.00,28.29,-4010.00,-1834.00,-731.00
209,15156.00,8072.00,1464.00,28.25,-543.00,-598.00,764.00
210,13256.00,8236.00,2424.00,28.29,2894.00,751.00,533.00
211,14528.00,9212.00,3156.00,28.20,4352.00,2211.00,1731.00
212,14568.00,10856.00,792.00,28.29,5066.00,3728.00,2785.00
213,13112.00,9904.00,1600.00,28.25,-1264.00,-597.00,586.00
214,15564.00,10076.00,740.00,28.20,-7017.00,-3652.00,-997.00
215,13892.00,8452.00,168.00,28.15,-7287.00,-1579.00,-1376.00
216,13964.00,7444.00,432.00,28.25,635.00,1285.00,-239.00
217,13808.00,8596.00,-552.00,28.15,1655.00,1101.00,1978.00
218,15024.00,9044.00,-440.00,28.29,-165.00,-1245.00,2364.00
219,14488.00,7824.00,1352.00,28.25,-1728.00,-2143.00,156.00
220,15864.00,7932.00,224.00,28.20,-329.00,91.00,156.00
221,14688.00,8256.00,736.00,28.25,95.00,-134.00,784.00
222,14536.00,8176.00,544.00,28.29,564.00,-259.00,621.00
223,15068.00,8184.00,360.00,28.34,2910.00,624.00,927.00
224,14752.00,7972.00,436.00,28.25,3968.00,1046.00,446.00
225,14072.00,7556.00,916.00,28.25,4377.00,486.00,21.00
226,14996.00,7392.00,420.00,28.20,2142.00,86.00,-813.00
227,15492.00,7388.00,796.00,28.25,823.00,1170.00,-534.00
228,15624.00,7700.00,184.00,28.34,3260.00,3028.00,742.00
229,15228.00,7808.00,-424.00,28.25,3914.00,2592.00,1013.00
230,14780.00,7128.00,-76.00,28.20,2191.00,333.00,190.00
231,15004.00,6920.00,872.00,28.25,858.00,-254.00,-452.00
232,15608.00,7292.00,672.00,28.25,1610.00,533.00,-295.00
233,14440.00,7312.00,996.00,28.25,1941.00,864.00,-667.00
234,14312.00,7312.00,780.00,28.25,856.00,1028.00,-1176.00
235,15532.00,7588.00,1072.00,28.34,2188.00,2368.00,-550.00
236,16040.00,7956.00,100.00,28.20,5234.00,4437.00,569.00
237,15088.00,7192.00,692.00,28.29,4898.00,3113.00,80.00
238,15576.00,7028.00,208.00,28.25,3736.00,1444.00,-136.00
239,15612.00,6896.00,1192.00,28.25,2256.00,204.00,-330.00
240,15784.00,6608.00,1988.00,28.25,716.00,-509.00,-909.00
241,15712.00,6448.00,1688.00,28.20,-108.00,-103.00,-754.00
242,15552.00,6712.00,1108.00,28.20,116.00,469.00,-264.00
243,15512.00,6912.00,764.00,28.29,-1053.00,-489.00,-221.00
244,15300.00,7272.00,452.00,28.25,-1474.00,-871.00,286.00
245,15404.00,7328.00,828.00,28.25,-2688.00,-1996.00,-180.00
246,14792.00,7148.00,1436.00,28.15,-3152.00,-2089.00,-556.00
247,14936.00,7344.00,876.00,28.29,-1702.00,-710.00,-5.00
248,15128.00,7572.00,580.00,28.29,-1558.00,-635.00,120.00
249,15340.00,7752.00,184.00,28.29,-1896.00,-806.00,-272.00
250,15272.00,7636.00,576.00,28.34,-1929.00,-1385.00,-204.00
251,15560.00,7276.00,1440.00,28.29,-1833.00,-1316.00,-293.00
252,15232.00,7124.00,96.00,28.25,-816.00,-97.00,752.00
253,14824.00,7220.00,256.00,28.25,-1593.00,-1578.00,448.00
254,15496.00,7276.00,420.00,28.25,-2846.00,-2471.00,-232.00
255,14792.00,6952.00,932.00,28.29,-3008.00,-2232.00,93.00
256,14720.00,7272.00,584.00,28.25,-2422.00,-879.00,647.00
257,15244.00,7844.00,88.00,28.25,-2064.00,-685.00,712.00
258,15216.00,7804.00,72.00,28.34,-2328.00,-991.00,-28.00
259,15100.00,7424.00,24.00,28.25,-1984.00,-1206.00,-299.00
260,15280.00,7412.00,76.00,28.25,-1924.00,-1286.00,-450.00
261,15152.00,7284.00,0.00,28.29,-1683.00,-1191.00,-238.00
262,15084.00,7380.00,332.00,28.25,-1444.00,-1144.00,1.00
263,15384.00,7532.00,72.00,28.25,-1423.00,-1079.00,287.00
264,15200.00,7260.00,220.00,28.25,-1211.00,-1641.00,-54.00
265,14780.00,6764.00,372.00,28.20,-2322.00,-2275.00,-641.00
266,15304.00,6892.00,468.00,28.15,-2346.00,-1661.00,-153.00
267,14952.00,7168.00,432.00,28.29,-2224.00,-1018.00,301.00
268,14976.00,7424.00,-188.00,28.34,-1650.00,-546.00,483.00
269,14968.00,7868.00,-776.00,28.29,-1310.00,-354.00,808.00
270,15056.00,7936.00,-440.00,28.20,-1049.00,-750.00,226.00
271,14896.00,7564.00,24.00,28.25,-1042.00,-900.00,-423.00
272,15012.00,7500.00,232.00,28.34,-620.00,-668.00,-294.00
273,14660.00,7304.00,324.00,28.29,-530.00,-352.00,-23.00
274,14416.00,7560.00,-92.00,28.29,451.00,398.00,518.00
275,14772.00,8012.00,-40.00,28.25,749.00,311.00,329.00
276,15100.00,7664.00,-400.00,28.20,-53.00,126.00,-140.00
277,15216.00,7124.00,-8.00,28.29,74.00,-514.00,-815.00
278,15868.00,6600.00,76.00,28.25,-1074.00,-437.00,-1500.00
279,15608.00,6264.00,-212.00,28.29,774.00,1138.00,-252.00
280,15296.00,6684.00,-756.00,28.29,2343.00,2134.00,822.00
281,15612.00,7136.00,-688.00,28.25,1780.00,937.00,756.00
282,15112.00,6912.00,-440.00,28.25,704.00,88.00,-172.00
283,14820.00,6640.00,284.00,28.29,574.00,273.00,-66.00
284,14824.00,6956.00,164.00,28.25,1221.00,1045.00,156.00
285,15064.00,7276.00,-292.00,28.25,1406.00,1463.00,12.00
286,15212.00,7396.00,-160.00,28.25,1147.00,1130.00,-892.00
287,14988.00,7124.00,256.00,28.29,1171.00,843.00,-1454.00
288,15340.00,7316.00,620.00,28.20,1896.00,1696.00,-1272.00
289,15220.00,7416.00,824.00,28.25,2795.00,2368.00,-707.00
290,15592.00,7524.00,576.00,28.25,3311.00,2858.00,-302.00
291,15396.00,7304.00,608.00,28.34,2973.00,2320.00,-9.00
292,15148.00,7116.00,608.00,28.25,2804.00,1590.00,-23.00
293,15360.00,6932.00,1228.00,28.25,1941.00,945.00,-456.00
294,15476.00,6792.00,1400.00,28.34,1411.00,807.00,-405.00
295,15644.00,6940.00,1076.00,28.34,1462.00,1375.00,-171.00
296,15432.00,7100.00,924.00,28.29,937.00,702.00,-213.00
297,15716.00,6884.00,704.00,28.29,318.00,171.00,-234.00
298,16008.00,6728.00,724.00,28.25,-1140.00,-1111.00,-602.00
299,15620.00,6504.00,1496.00,28.29,-3152.00,-1772.00,-773.00
300,14080.00,6908.00,1300.00,28.20,-600.00,-1077.00,637.00
301,15020.00,7764.00,964.00,28.29,-1485.00,-1132.00,-397.00
302,16028.00,7564.00,1260.00,28.25,-1536.00,-1009.00,-1013.00
303,15088.00,7104.00,860.00,28.34,-1288.00,91.00,-821.00
304,15036.00,7164.00,500.00,28.25,-1300.00,-134.00,-433.00
305,15348.00,7368.00,468.00,28.34,-820.00,-45.00,249.00
306,15864.00,7776.00,496.00,28.34,-1368.00,-518.00,197.00
307,15076.00,7592.00,208.00,28.25,-1415.00,-777.00,-73.00
308,14960.00,7448.00,380.00,28.34,-1710.00,-1796.00,-103.00
309,15272.00,7508.00,816.00,28.20,-2389.00,-2421.00,-504.00
310,15852.00,7760.00,1112.00,28.34,-2921.00,-2493.00,-784.00
311,14620.00,7224.00,388.00,28.20,-1589.00,-1229.00,-296.00
312,14460.00,7136.00,180.00,28.25,-1307.00,-1710.00,350.00
313,14752.00,7652.00,544.00,28.25,-2408.00,-2831.00,466.00
314,15112.00,7736.00,1024.00,28.29,-3984.00,-3321.00,-365.00
315,14932.00,7428.00,1284.00,28.20,-3564.00,-2223.00,-457.00
316,14872.00,7492.00,628.00,28.15,-2329.00,-836.00,762.00
317,14424.00,7776.00,-172.00,28.34,-1791.00,-616.00,1198.00
318,14920.00,8216.00,-84.00,28.29,-2884.00,-2380.00,566.00
319,14612.00,7612.00,164.00,28.25,-4626.00,-2626.00,-568.00
320,14504.00,7396.00,416.00,28.25,-3421.00,-1316.00,40.00
321,14832.00,8120.00,312.00,28.20,-2539.00,-880.00,735.00
322,14844.00,8108.00,56.00,28.39,-2439.00,-1115.00,809.00
323,14840.00,7648.00,56.00,28.20,-2809.00,-1479.00,-204.00
324,15620.00,7048.00,-764.00,28.15,-1424.00,-366.00,-466.00
325,15828.00,6680.00,-1768.00,28.20,322.00,890.00,-476.00
326,14696.00,6648.00,-2308.00,28.20,1650.00,521.00,173.00
327,15228.00,7432.00,-780.00,28.29,751.00,-682.00,329.00
328,15580.00,7784.00,-236.00,28.29,347.00,-270.00,792.00
329,14556.00,7448.00,-608.00,28.20,1260.00,319.00,498.00
330,14760.00,7716.00,-180.00,28.29,538.00,-769.00,-39.00
331,15260.00,7700.00,340.00,28.20,353.00,-727.00,-472.00
332,14976.00,7328.00,112.00,28.20,757.00,-54.00,-757.00
333,14652.00,7076.00,36.00,28.25,537.00,107.00,-945.00
334,14992.00,7108.00,20.00,28.25,658.00,456.00,-634.00
335,15212.00,7380.00,-144.00,28.29,932.00,731.00,-111.00
336,14988.00,7432.00,-380.00,28.34,1050.00,781.00,-75.00
337,14980.00,7480.00,-84.00,28.29,701.00,566.00,-473.00
338,15152.00,7412.00,-132.00,28.25,874.00,671.00,-290.00
339,15148.00,7372.00,-56.00,28.15,732.00,604.00,-292.00
340,15268.00,7260.00,-180.00,28.20,436.00,325.00,-523.00
341,15332.00,7188.00,-236.00,28.20,-125.00,-310.00,-605.00
342,15100.00,7300.00,-284.00,28.25,352.00,-130.00,-413.00
343,14624.00,7416.00,-172.00,28.34,949.00,221.00,-36.00
344,14848.00,7596.00,-148.00,28.34,1121.00,570.00,170.00
345,15000.00,7544.00,56.00,28.34,1006.00,750.00,-357.00
346,15040.00,7296.00,196.00,28.20,1027.00,1133.00,-834.00
347,15236.00,7116.00,-104.00,28.29,1525.00,1653.00,-507.00
348,15360.00,7076.00,-636.00,28.25,1827.00,1750.00,-115.00
349,15048.00,7152.00,-844.00,28.25,1138.00,443.00,-184.00
350,15244.00,7124.00,-144.00,28.11,424.00,-446.00,-626.00
351,15000.00,7192.00,528.00,28.20,418.00,1.00,-562.00
352,15124.00,7248.00,448.00,28.25,798.00,1021.00,-312.00
353,14624.00,7420.00,60.00,28.25,608.00,1075.00,-437.00
354,14936.00,7352.00,-348.00,28.20,942.00,1215.00,-501.00
355,14832.00,7484.00,-152.00,28.20,1805.00,1535.00,-402.00
356,14880.00,7756.00,144.00,28.25,2259.00,1865.00,-280.00
357,15440.00,7728.00,592.00,28.25,2138.00,2096.00,-448.00
358,15224.00,7680.00,328.00,28.20,2914.00,2495.00,-61.00
359,15136.00,7288.00,232.00,28.20,2966.00,2385.00,-159.00
360,15036.00,7280.00,212.00,28.34,2637.00,1719.00,-256.00
361,15500.00,7212.00,532.00,28.29,2373.00,1359.00,-433.00
362,15412.00,7248.00,860.00,28.29,1650.00,856.00,-682.00
363,15460.00,7044.00,1132.00,28.20,1302.00,712.00,-810.00
364,15392.00,6848.00,1364.00,28.20,596.00,299.00,-574.00
365,15308.00,6988.00,988.00,28.29,-33.00,530.00,-421.00
366,15256.00,7084.00,904.00,28.25,6.00,469.00,120.00
367,15492.00,7356.00,592.00,28.25,-643.00,-125.00,-6.00
368,15144.00,7268.00,816.00,28.15,-1279.00,-1132.00,-290.00
369,15772.00,7316.00,572.00,28.20,-1010.00,-1023.00,18.00
370,15796.00,7284.00,544.00,28.20,-2502.00,-2379.00,-400.00
371,15352.00,6968.00,628.00,28.25,-2991.00,-2647.00,-345.00
372,14772.00,7204.00,796.00,28.20,-3159.00,-2448.00,78.00
373,14532.00,7616.00,1208.00,28.20,-2978.00,-1770.00,419.00
374,15008.00,8240.00,684.00,28.25,-1772.00,-585.00,774.00
375,14948.00,8116.00,232.00,28.29,-1207.00,-81.00,332.00
376,14992.00,8104.00,24.00,28.25,-723.00,-93.00,24.00
377,15216.00,7720.00,108.00,28.20,-1043.00,-820.00,-549.00
378,15296.00,7336.00,348.00,28.15,-957.00,-912.00,-665.00
379,15372.00,7112.00,588.00,28.15,-1326.00,-1277.00,-592.00
380,15340.00,7032.00,884.00,28.20,-1470.00,-928.00,42.00
381,15212.00,6892.00,324.00,28.15,-1629.00,-919.00,845.00
382,15096.00,7112.00,240.00,28.20,-2457.00,-1737.00,772.00
383,15300.00,7332.00,548.00,28.25,-2371.00,-1547.00,1130.00
384,15180.00,7492.00,484.00,28.20,-2389.00,-1159.00,1073.00
385,15020.00,7404.00,76.00,28.15,-2106.00,-697.00,734.00
386,15084.00,7376.00,-60.00,28.25,-2329.00,-1350.00,119.00
387,15328.00,7140.00,152.00,28.34,-2494.00,-1852.00,-314.00
388,15200.00,7020.00,632.00,28.29,-2224.00,-1386.00,-75.00
389,15080.00,7016.00,120.00,28.15,-1798.00,-793.00,215.00
390,15136.00,7172.00,-160.00,28.25,-1456.00,-662.00,291.00
391,15024.00,7400.00,-132.00,28.29,-1139.00,-659.00,195.00
392,15032.00,7488.00,132.00,28.25,-762.00,-606.00,-90.00
393,15088.00,7456.00,200.00,28.15,-371.00,-228.00,-297.00
394,15124.00,7112.00,168.00,28.25,-302.00,-187.00,-564.00
395,15184.00,6988.00,224.00,28.25,-224.00,-189.00,-527.00
396,15288.00,6968.00,164.00,28.20,-1.00,209.00,-370.00
397,15104.00,7096.00,-68.00,28.25,101.00,90.00,-389.00
398,14924.00,6904.00,196.00,28.20,-361.00,-686.00,-720.00
399,15192.00,6972.00,828.00,28.25,-147.00,12.00,-490.00
400,15428.00,7328.00,560.00,28.20,1097.00,1644.00,392.00
401,15204.00,7560.00,-316.00,28.20,1634.00,1709.00,564.00
402,15468.00,7312.00,-212.00,28.25,922.00,552.00,-321.00
403,15164.00,7172.00,92.00,28.11,1078.00,252.00,-480.00
404,15144.00,7172.00,524.00,28.20,652.00,-421.00,-887.00
405,15176.00,7016.00,668.00,28.29,221.00,-250.00,-704.00
406,15468.00,6772.00,716.00,28.20,140.00,-12.00,-770.00
407,15096.00,6572.00,464.00,28.25,203.00,463.00,-393.00
408,14816.00,7032.00,80.00,28.25,378.00,489.00,84.00
409,14708.00,7364.00,124.00,28.34,439.00,548.00,133.00
410,14904.00,7760.00,304.00,28.20,1136.00,876.00,188.00
411,15088.00,7824.00,508.00,28.20,1285.00,1249.00,-540.00
412,15424.00,7852.00,308.00,28.20,1773.00,1515.00,-931.00
413,15592.00,7556.00,8.00,28.29,1727.00,1395.00,-945.00
414,15500.00,7252.00,244.00,28.20,1620.00,1183.00,-747.00
415,15372.00,7016.00,420.00,28.29,1081.00,440.00,-478.00
416,15156.00,6900.00,1100.00,28.20,813.00,198.00,-432.00
417,14784.00,6712.00,1100.00,28.29,942.00,564.00,-185.00
418,15200.00,7300.00,844.00,28.20,769.00,666.00,-15.00
419,15420.00,7404.00,312.00,28.25,486.00,533.00,49.00
420,15636.00,7336.00,344.00,28.20,-289.00,-430.00,-360.00
421,15228.00,7072.00,772.00,28.20,-426.00,-560.00,-278.00
422,14976.00,6824.00,932.00,28.29,-465.00,-691.00,-165.00
423,15616.00,7144.00,772.00,28.29,-670.00,-581.00,10.00
424,15296.00,7296.00,200.00,28.29,-1165.00,-794.00,-4.00
425,15228.00,7276.00,144.00,28.15,-1667.00,-1157.00,-161.00
426,15212.00,7488.00,276.00,28.25,-1861.00,-1167.00,-46.00
427,14692.00,7624.00,896.00,28.25,-2012.00,-1321.00,-297.00
428,15132.00,7612.00,772.00,28.20,-910.00,-28.00,-246.00
429,14972.00,7712.00,244.00,28.20,-587.00,269.00,-166.00
430,15164.00,7568.00,8.00,28.20,-439.00,-73.00,-335.00
431,15320.00,7484.00,216.00,28.25,-452.00,-501.00,-339.00
432,15312.00,7360.00,588.00,28.15,-564.00,-787.00,-410.00
433,15236.00,7096.00,988.00,28.20,-893.00,-957.00,-298.00
434,15120.00,7136.00,624.00,28.34,-696.00,-380.00,183.00
435,15140.00,7116.00,256.00,28.15,-1332.00,-790.00,167.00
436,15316.00,7292.00,508.00,28.25,-1188.00,-754.00,696.00
437,14944.00,7428.00,348.00,28.29,-1054.00,-352.00,1007.00
438,14740.00,7688.00,-100.00,28.29,-1172.00,-505.00,536.00
439,14932.00,7616.00,168.00,28.34,-1825.00,-1334.00,-157.00
440,15120.00,7440.00,716.00,28.20,-1318.00,-530.00,-376.00
441,15096.00,7380.00,388.00,28.20,-744.00,-37.00,-201.00
442,15084.00,7400.00,-32.00,28.20,-487.00,-71.00,-90.00
443,15220.00,7280.00,-52.00,28.25,-439.00,-303.00,-11.00
444,15228.00,7412.00,392.00,28.34,-214.00,-370.00,-38.00
445,15248.00,7316.00,336.00,28.15,-159.00,-178.00,-96.00
446,15328.00,7232.00,392.00,28.15,-227.00,-157.00,-185.00
447,15084.00,6988.00,352.00,28.15,-248.00,-138.00,-221.00
448,15068.00,7020.00,0.00,28.15,-389.00,-372.00,-328.00
449,15336.00,7172.00,616.00,28.25,-724.00,-813.00,-494.00
450,14952.00,7084.00,864.00,28.25,-267.00,3.00,-343.00
451,15268.00,7212.00,912.00,28.29,318.00,801.00,70.00
452,15344.00,7484.00,-52.00,28.34,1247.00,1808.00,533.00
453,15416.00,7648.00,-536.00,28.25,602.00,360.00,120.00
454,15256.00,7264.00,-40.00,28.20,-28.00,-978.00,-537.00
455,15236.00,7088.00,800.00,28.20,122.00,-744.00,-437.00
456,15092.00,7056.00,1012.00,28.20,-111.00,-382.00,-561.00
457,15040.00,6816.00,784.00,28.20,-246.00,59.00,-313.00
458,15004.00,6988.00,400.00,28.29,-25.00,450.00,-50.00
459,14920.00,7244.00,-108.00,28.25,-117.00,114.00,-204.00
460,15028.00,7500.00,500.00,28.25,-379.00,-206.00,-378.00
461,14872.00,7508.00,856.00,28.25,-669.00,-180.00,-886.00
462,15524.00,7372.00,740.00,28.25,513.00,1004.00,-529.00
463,15872.00,7372.00,136.00,28.25,642.00,985.00,-193.00
464,14948.00,7036.00,-136.00,28.29,611.00,423.00,9.00
465,15152.00,6992.00,208.00,28.15,79.00,-286.00,148.00
466,15304.00,7420.00,972.00,28.29,-207.00,-357.00,124.00
467,15112.00,7288.00,1024.00,28.25,-282.00,-134.00,-191.00
468,15060.00,7196.00,864.00,28.20,-568.00,-120.00,-343.00
469,15384.00,7296.00,364.00,28.20,-157.00,204.00,-74.00
470,15000.00,7176.00,388.00,28.29,-251.00,-281.00,-179.00
471,15360.00,7380.00,304.00,28.25,122.00,-349.00,129.00
472,15536.00,7444.00,240.00,28.25,-319.00,-619.00,-47.00
473,15276.00,7124.00,336.00,28.25,-1079.00,-1279.00,-402.00
474,14604.00,6892.00,944.00,28.20,-1694.00,-1730.00,-499.00
475,15160.00,7192.00,816.00,28.15,-967.00,-397.00,-199.00
476,15032.00,7316.00,844.00,28.25,-947.00,-68.00,-91.00
477,15088.00,7552.00,-28.00,28.20,-216.00,943.00,339.00
478,15092.00,7764.00,-284.00,28.20,-271.00,145.00,76.00
479,15172.00,7768.00,-152.00,28.15,-455.00,-625.00,-188.00
480,15256.00,7480.00,452.00,28.25,-592.00,-897.00,-382.00
481,15076.00,7120.00,680.00,28.29,-341.00,-335.00,-248.00
482,15052.00,6988.00,396.00,28.29,-630.00,-445.00,-76.00
483,15308.00,7144.00,324.00,28.25,-849.00,-496.00,-219.00
484,15260.00,7236.00,628.00,28.25,-738.00,-317.00,-113.00
485,15108.00,7628.00,520.00,28.15,-360.00,203.00,248.00
486,15192.00,7656.00,-168.00,28.25,-240.00,-8.00,26.00
487,15000.00,7588.00,188.00,28.29,-923.00,-1021.00,-291.00
488,15448.00,7208.00,552.00,28.29,-445.00,-685.00,-286.00
489,15552.00,7100.00,472.00,28.25,-207.00,-58.00,40.00
490,15236.00,7204.00,156.00,28.25,48.00,13.00,376.00
491,14504.00,7060.00,72.00,28.20,-629.00,-629.00,13.00
492,14880.00,7164.00,236.00,28.34,-798.00,-976.00,-164.00
493,15432.00,7216.00,808.00,28.15,-1058.00,-432.00,-394.00
494,15200.00,7204.00,240.00,28.20,-296.00,494.00,-156.00
495,15072.00,7324.00,-216.00,28.20,-376.00,316.00,5.00
496,15176.00,7388.00,-288.00,28.25,-322.00,-204.00,-83.00
497,15112.00,7392.00,-96.00,28.25,-482.00,-586.00,-272.00
498,15036.00,7364.00,728.00,28.20,-679.00,-998.00,-699.00
499,14764.00,6948.00,920.00,28.20,-103.00,-31.00,-408.00
500,15136.00,7280.00,420.00,28.29,612.00,1035.00,257.00
501,15556.00,7492.00,-96.00,28.15,581.00,937.00,41.00
502,15200.00,7332.00,-412.00,28.29,704.00,423.00,185.00
503,15500.00,7392.00,40.00,28.20,98.00,-322.00,-310.00
504,15044.00,7356.00,364.00,28.15,-93.00,-599.00,-614.00
505,15180.00,6900.00,728.00,28.25,-223.00,-470.00,-702.00
506,15368.00,6868.00,660.00,28.25,176.00,369.00,-111.00
507,14884.00,6948.00,84.00,28.25,-635.00,-57.00,-190.00
508,15412.00,7292.00,68.00,28.20,-1046.00,-565.00,-445.00
509,15168.00,7524.00,396.00,28.25,-1087.00,-449.00,-459.00
510,15120.00,7528.00,520.00,28.25,-654.00,-70.00,-498.00
511,15488.00,7684.00,140.00,28.25,180.00,657.00,-67.00
512,15112.00,7688.00,-148.00,28.20,22.00,210.00,-75.00
513,15012.00,7384.00,-28.00,28.25,42.00,-100.00,-11.00
514,15056.00,7392.00,672.00,28.20,-283.00,-360.00,-67.00
515,15164.00,7316.00,656.00,28.25,-241.00,-128.00,-320.00
516,15460.00,7156.00,276.00,28.25,-107.00,305.00,-138.00
517,15144.00,7332.00,56.00,28.25,55.00,214.00,16.00
518,15088.00,7380.00,196.00,28.25,-171.00,-71.00,-37.00
519,14984.00,7588.00,424.00,28.20,76.00,-64.00,76.00
520,15312.00,7748.00,660.00,28.25,293.00,116.00,-18.00
521,14780.00,7276.00,460.00,28.20,-398.00,-403.00,-336.00
522,15564.00,7044.00,332.00,28.11,-425.00,-396.00,-373.00
523,15692.00,7248.00,332.00,28.20,-514.00,-528.00,-246.00
524,14968.00,7028.00,536.00,28.15,-743.00,-785.00,-301.00
525,14912.00,7256.00,744.00,28.25,-760.00,-599.00,-18.00
526,15048.00,7452.00,640.00,28.25,-680.00,-41.00,-120.00
527,15048.00,7500.00,140.00,28.25,-520.00,184.00,-123.00
528,14996.00,7480.00,-60.00,28.25,-252.00,276.00,-18.00
529,15256.00,7424.00,60.00,28.20,-292.00,-194.00,-101.00
530,15192.00,7540.00,220.00,28.20,-104.00,-248.00,-121.00
531,15116.00,7228.00,496.00,28.29,-265.00,-349.00,-325.00
532,15232.00,7068.00,508.00,28.15,-618.00,-628.00,-288.00
533,15316.00,6972.00,592.00,28.15,-658.00,-541.00,-206.00
534,14988.00,7180.00,564.00,28.25,-477.00,-206.00,132.00
535,15336.00,7548.00,52.00,28.25,-160.00,178.00,595.00
536,15184.00,7632.00,-52.00,28.20,-693.00,-517.00,106.00
537,15132.00,7512.00,112.00,28.29,-943.00,-988.00,-229.00
538,14908.00,7136.00,712.00,28.20,-1507.00,-1544.00,-696.00
539,14980.00,6784.00,984.00,28.34,-1246.00,-654.00,-562.00
540,15316.00,7240.00,312.00,28.25,-675.00,421.00,-5.00
541,15180.00,7344.00,-200.00,28.20,-552.00,572.00,242.00
542,15328.00,7580.00,-424.00,28.20,-805.00,-273.00,179.00
543,15136.00,7620.00,88.00,28.20,-653.00,-697.00,-63.00
544,14896.00,7500.00,516.00,28.20,-566.00,-662.00,-231.00
545,14916.00,7392.00,344.00,28.20,-427.00,-374.00,-247.00
546,15112.00,7284.00,348.00,28.20,-361.00,-134.00,-311.00
547,15272.00,7320.00,-48.00,28.20,36.00,103.00,-225.00
548,15144.00,7396.00,536.00,28.15,162.00,64.00,-96.00
549,15048.00,7544.00,264.00,28.29,851.00,899.00,388.00
550,15260.00,7472.00,-124.00,28.20,675.00,644.00,47.00
551,15244.00,7452.00,-232.00,28.25,296.00,-14.00,-290.00
552,15200.00,7088.00,496.00,28.25,103.00,-454.00,-472.00
553,15024.00,6972.00,596.00,28.25,240.00,-108.00,-330.00
554,15032.00,7204.00,636.00,28.29,222.00,222.00,-141.00
555,15312.00,7368.00,412.00,28.20,546.00,715.00,-99.00
556,15012.00,7580.00,68.00,28.25,535.00,779.00,-98.00
557,15072.00,7556.00,-236.00,28.25,225.00,372.00,-506.00
558,15572.00,7388.00,588.00,28.15,274.00,239.00,-849.00
559,15880.00,7172.00,760.00,28.25,1003.00,1110.00,-536.00
560,15416.00,7184.00,416.00,28.15,953.00,840.00,-231.00
561,14684.00,6888.00,184.00,28.20,774.00,433.00,238.00
562,15240.00,7228.00,408.00,28.20,188.00,-241.00,228.00
563,15452.00,7156.00,632.00,28.15,-103.00,-372.00,-184.00
564,15212.00,7188.00,880.00,28.34,-504.00,-424.00,-298.00
565,14960.00,7032.00,1104.00,28.29,-1114.00,-552.00,-383.00
566,15280.00,7228.00,548.00,28.25,-837.00,-66.00,-208.00
567,15256.00,7236.00,288.00,28.29,-811.00,-252.00,-124.00
568,15536.00,7592.00,232.00,28.25,-485.00,-254.00,151.00
569,15128.00,7612.00,360.00,28.20,-1238.00,-1235.00,-433.00
570,14960.00,7384.00,528.00,28.25,-1141.00,-1227.00,-344.00
571,15092.00,7400.00,660.00,28.29,-1059.00,-1004.00,-325.00
572,14740.00,7252.00,1004.00,28.25,-939.00,-572.00,-179.00
573,15300.00,7436.00,496.00,28.20,-283.00,581.00,148.00
574,14908.00,7648.00,8.00,28.25,-424.00,267.00,35.00
575,15080.00,7764.00,-92.00,28.25,-69.00,171.00,-64.00
576,15340.00,7836.00,-72.00,28.29,-38.00,-379.00,-74.00
577,15216.00,7408.00,136.00,28.20,8.00,-505.00,-176.00
578,15160.00,7052.00,636.00,28.25,-388.00,-961.00,-323.00
579,15500.00,7008.00,928.00,28.34,-527.00,-574.00,-237.00
580,15112.00,6960.00,676.00,28.25,-436.00,15.00,30.00
581,15012.00,7004.00,304.00,28.20,-465.00,262.00,617.00
582,15084.00,7564.00,-108.00,28.25,-969.00,-347.00,532.00
583,14812.00,7440.00,208.00,28.25,-1589.00,-1241.00,-340.00
584,14984.00,7260.00,632.00,28.20,-1337.00,-882.00,-314.00
585,15032.00,7408.00,504.00,28.15,-960.00,-254.00,-280.00
586,15064.00,7264.00,60.00,28.34,-569.00,26.00,-163.00
587,15120.00,7280.00,-156.00,28.20,-422.00,-173.00,-42.00
588,15188.00,7416.00,152.00,28.29,-264.00,-430.00,30.00
589,15072.00,7432.00,384.00,28.20,-195.00,-397.00,-129.00
590,14884.00,7260.00,428.00,28.29,-256.00,-396.00,-366.00
591,15368.00,7192.00,736.00,28.29,-282.00,-292.00,-389.00
592,14956.00,7044.00,328.00,28.25,-244.00,-119.00,-269.00
593,15080.00,7012.00,552.00,28.25,-337.00,-185.00,-159.00
594,15460.00,7512.00,648.00,28.25,2.00,598.00,62.00
595,15364.00,7692.00,96.00,28.25,752.00,1219.00,352.00
596,15172.00,7636.00,-512.00,28.29,340.00,244.00,-29.00
597,15264.00,7240.00,100.00,28.20,-142.00,-628.00,-284.00
598,15136.00,7232.00,688.00,28.20,-450.00,-755.00,-514.00
599,15204.00,7104.00,748.00,28.25,-366.00,-479.00,-524.00
600,15012.00,6804.00,808.00,28.34,-329.00,135.00,-194.00
601,14988.00,7272.00,224.00,28.25,-92.00,492.00,50.00
602,14740.00,7512.00,-104.00,28.25,-371.00,43.00,-180.00
603,14912.00,7532.00,484.00,28.15,-483.00,-84.00,-278.00
604,15248.00,7544.00,284.00,28.25,40.00,523.00,-324.00
605,15304.00,7440.00,464.00,28.20,5.00,368.00,-498.00
606,15428.00,7140.00,396.00,28.25,654.00,823.00,-118.00
607,15220.00,7316.00,208.00,28.25,833.00,653.00,124.00
608,15148.00,7252.00,304.00,28.25,707.00,252.00,119.00
609,15076.00,7520.00,528.00,28.25,335.00,-435.00,-48.00
610,15268.00,7284.00,980.00,28.20,-166.00,-629.00,-703.00
611,15188.00,6976.00,1012.00,28.25,-397.00,-458.00,-450.00
612,15036.00,6900.00,772.00,28.25,-749.00,-458.00,-466.00
613,15260.00,6884.00,480.00,28.34,-1088.00,-597.00,-300.00
614,15368.00,7304.00,220.00,28.29,-1137.00,-473.00,-177.00
615,14916.00,7372.00,656.00,28.15,-1276.00,-767.00,-174.00
616,15184.00,7732.00,72.00,28.25,-465.00,-23.00,630.00
617,15608.00,7608.00,-520.00,28.15,-675.00,-306.00,113.00
618,14868.00,7684.00,164.00,28.25,-1494.00,-1644.00,-366.00
619,15232.00,7292.00,788.00,28.29,-1536.00,-1446.00,-789.00
620,15012.00,7264.00,1172.00,28.20,-600.00,-379.00,-166.00
621,14944.00,7600.00,544.00,28.25,-72.00,546.00,96.00
622,15108.00,7808.00,-28.00,28.29,-345.00,134.00,-151.00
623,15056.00,7580.00,-188.00,28.25,-365.00,-251.00,-376.00
624,15120.00,7388.00,220.00,28.29,-330.00,-601.00,-221.00
625,14976.00,7420.00,556.00,28.20,-261.00,-322.00,-157.00
626,14912.00,7248.00,576.00,28.20,-851.00,-523.00,-424.00
627,15056.00,7184.00,604.00,28.29,-758.00,-210.00,-170.00
628,15192.00,7288.00,844.00,28.20,-379.00,234.00,115.00
629,14892.00,7524.00,568.00,28.34,-128.00,605.00,153.00
630,14600.00,7408.00,484.00,28.34,374.00,517.00,21.00
631,14572.00,6988.00,1184.00,28.20,452.00,288.00,177.00
632,14696.00,7180.00,1700.00,28.25,306.00,946.00,-210.00
633,15080.00,7372.00,1948.00,28.34,76.00,1892.00,-220.00
634,14996.00,7424.00,1240.00,28.25,138.00,1943.00,155.00
635,15412.00,7580.00,888.00,28.34,708.00,2412.00,677.00
636,15940.00,7972.00,584.00,28.20,676.00,2353.00,387.00
637,15520.00,6964.00,452.00,28.20,1271.00,2026.00,-461.00
638,13620.00,6812.00,1120.00,28.29,-1076.00,-609.00,-1696.00
639,13780.00,6160.00,1240.00,28.25,979.00,-624.00,-486.00
640,12900.00,6348.00,1184.00,28.25,1240.00,-50.00,-27.00
641,13516.00,7564.00,684.00,28.25,5350.00,355.00,1270.00
642,14108.00,7496.00,72.00,28.25,4580.00,-1238.00,-329.00
643,13960.00,7912.00,752.00,28.25,8445.00,-4603.00,-2173.00
644,14080.00,6792.00,-480.00,28.29,7727.00,-6482.00,-4031.00
645,13636.00,7728.00,-640.00,28.25,4917.00,-6906.00,-3511.00
646,15248.00,8816.00,-4664.00,28.25,6068.00,-6004.00,-2031.00
647,15180.00,9136.00,-6520.00,28.20,1036.00,-8333.00,-1837.00
648,17612.00,7668.00,-6216.00,28.20,8.00,-3148.00,-3323.00
649,14156.00,8140.00,-5300.00,28.25,2283.00,-3179.00,-3415.00
650,12032.00,7236.00,-6660.00,28.20,2337.00,-1887.00,149.00
651,11016.00,7768.00,-6704.00,28.25,-74.00,-2028.00,774.00
652,11204.00,10704.00,-9420.00,28.29,-305.00,-3876.00,-2628.00
653,11324.00,7924.00,-7416.00,28.20,1600.00,-3041.00,-3300.00
654,10884.00,7800.00,-8664.00,28.34,76.00,-3547.00,-3101.00
655,10644.00,8176.00,-7352.00,28.29,348.00,-3376.00,-2314.00
656,10064.00,8220.00,-8360.00,28.15,1697.00,-3768.00,-2092.00
657,10064.00,8540.00,-8396.00,28.25,1160.00,-4645.00,-1356.00
658,9760.00,9072.00,-8188.00,28.34,930.00,-4618.00,-1299.00
659,9028.00,9776.00,-8760.00,28.29,453.00,-4875.00,-1982.00
660,9232.00,9692.00,-9952.00,28.25,982.00,-4340.00,-2511.00
661,7844.00,9132.00,-8968.00,28.20,1015.00,-4588.00,-2696.00
662,6896.00,9112.00,-11184.00,28.34,2176.00,-4250.00,-2828.00
663,6392.00,9288.00,-11488.00,28.25,2345.00,-3964.00,-2582.00
664,5164.00,7788.00,-11064.00,28.20,2085.00,-4757.00,-2659.00
665,4964.00,8248.00,-12676.00,28.29,2891.00,-4921.00,-2152.00
666,4092.00,7764.00,-12092.00,28.15,3372.00,-4947.00,-1580.00
667,3664.00,7316.00,-11988.00,28.25,4139.00,-5345.00,-2417.00
668,2452.00,7488.00,-19876.00,28.25,4012.00,-5617.00,-526.00
669,1748.00,6072.00,-10320.00,28.29,1003.00,2145.00,-754.00
670,392.00,5212.00,-16444.00,28.25,4627.00,1172.00,-221.00
671,-280.00,3560.00,-11916.00,28.20,1726.00,586.00,1229.00
672,3364.00,5684.00,-14512.00,28.29,1768.00,454.00,2779.00
673,4396.00,4332.00,-13416.00,28.25,2502.00,1087.00,2940.00
674,3256.00,5124.00,-14100.00,28.20,-129.00,504.00,1440.00
675,3496.00,5460.00,-14332.00,28.15,1508.00,672.00,1298.00
676,2972.00,4492.00,-13788.00,28.25,-1009.00,-112.00,1087.00
677,2968.00,4380.00,-14392.00,28.25,-222.00,-430.00,1933.00
678,3272.00,4192.00,-13984.00,28.20,-469.00,-620.00,1371.00
679,3612.00,4096.00,-14288.00,28.25,36.00,-178.00,114.00
680,3260.00,4668.00,-13816.00,28.25,-608.00,-39.00,-500.00
681,3432.00,4588.00,-13944.00,28.25,-119.00,36.00,-557.00
682,3168.00,4444.00,-13824.00,28.25,-469.00,-221.00,-183.00
683,3628.00,4472.00,-14036.00,28.29,-473.00,-374.00,244.00
684,3940.00,4324.00,-14076.00,28.34,-248.00,-466.00,227.00
685,3616.00,3940.00,-13960.00,28.25,-656.00,-341.00,-148.00
686,3456.00,4104.00,-14220.00,28.29,-652.00,-171.00,-190.00
687,3756.00,4564.00,-13948.00,28.25,-1100.00,-510.00,355.00
688,3428.00,4712.00,-13780.00,28.25,-391.00,-281.00,-100.00
689,3316.00,4572.00,-13908.00,28.25,-367.00,-447.00,-58.00
690,3448.00,4632.00,-13988.00,28.25,-625.00,-368.00,228.00
691,3528.00,4512.00,-14036.00,28.25,-347.00,-39.00,-69.00
692,3648.00,4316.00,-13588.00,28.20,-423.00,-120.00,-334.00
693,3264.00,4520.00,-14196.00,28.25,-288.00,-160.00,68.00
694,3632.00,4484.00,-13916.00,28.15,-336.00,-96.00,-229.00
695,3092.00,4668.00,-14100.00,28.20,-391.00,-86.00,-63.00
696,3712.00,4520.00,-13644.00,28.20,-439.00,-97.00,68.00
697,3720.00,4472.00,-14136.00,28.20,-561.00,-78.00,-399.00
698,3656.00,4496.00,-13812.00,28.20,-502.00,-142.00,-205.00
699,3460.00,4684.00,-14016.00,28.25,-564.00,-175.00,-126.00
700,3624.00,4588.00,-13924.00,28.20,-502.00,-218.00,-59.00
701,3300.00,4776.00,-13872.00,28.20,-530.00,-195.00,-89.00
702,3648.00,4712.00,-13604.00,28.25,-636.00,-160.00,-262.00
703,3420.00,4612.00,-14096.00,28.20,-549.00,-318.00,-285.00
704,3428.00,4864.00,-13912.00,28.15,-406.00,-327.00,-80.00
705,3340.00,4840.00,-13696.00,28.34,-377.00,-173.00,-190.00
706,3436.00,4752.00,-13944.00,28.20,-450.00,-107.00,-302.00
707,3484.00,4916.00,-13828.00,28.44,-407.00,-237.00,-42.00
708,3560.00,4600.00,-13872.00,28.29,-441.00,-318.00,2.00
709,3484.00,4768.00,-13868.00,28.29,-526.00,-373.00,-174.00
710,3344.00,4988.00,-13880.00,28.20,-240.00,-235.00,-171.00
711,3320.00,4572.00,-13844.00,28.25,-427.00,-190.00,-83.00
712,3276.00,4764.00,-13660.00,28.20,-633.00,-204.00,-268.00
713,3260.00,4792.00,-13848.00,28.25,-476.00,-383.00,-120.00
714,3248.00,4788.00,-13636.00,28.20,-406.00,-445.00,-18.00
715,3384.00,4812.00,-14088.00,28.34,-287.00,-332.00,82.00
716,3496.00,4828.00,-13784.00,28.15,-271.00,-170.00,-288.00
717,3212.00,4820.00,-13880.00,28.25,-316.00,-200.00,-284.00
718,3160.00,4884.00,-14092.00,28.25,-374.00,-208.00,114.00
719,3344.00,4916.00,-13636.00,28.25,-418.00,-309.00,-234.00
720,3232.00,4840.00,-13720.00,28.29,-367.00,-241.00,-128.00
721,3316.00,4684.00,-13972.00,28.15,-316.00,-156.00,-277.00
722,3096.00,4856.00,-13860.00,28.29,-558.00,-199.00,-214.00
723,3304.00,4952.00,-13880.00,28.25,-295.00,-317.00,40.00
724,3160.00,4924.00,-13816.00,28.34,-336.00,-150.00,-59.00
725,3376.00,4740.00,-13840.00,28.29,-238.00,-26.00,-99.00
726,3468.00,4832.00,-14052.00,28.29,-408.00,-102.00,-161.00
727,3256.00,4748.00,-13844.00,28.25,-263.00,-133.00,-102.00
728,3276.00,4852.00,-13680.00,28.25,-420.00,-175.00,-182.00
729,3264.00,4932.00,-13964.00,28.20,-393.00,-38.00,-306.00
730,3204.00,4956.00,-13928.00,28.34,-233.00,-104.00,-94.00
731,3368.00,4888.00,-13744.00,28.15,-326.00,-204.00,-163.00
732,3340.00,4820.00,-13756.00,28.29,-433.00,-269.00,-78.00
733,3284.00,4756.00,-13952.00,28.25,-395.00,-208.00,-78.00
734,3268.00,4888.00,-13728.00,28.25,-535.00,-197.00,-200.00
735,3248.00,5144.00,-13744.00,28.29,-267.00,-97.00,-212.00
736,3304.00,5044.00,-14008.00,28.29,-325.00,-9.00,-156.00
737,3380.00,4836.00,-13800.00,28.25,-445.00,-191.00,-246.00
738,3212.00,4744.00,-13776.00,28.25,-616.00,-501.00,205.00
739,3508.00,4760.00,-14044.00,28.20,-690.00,-453.00,161.00
740,3564.00,5212.00,-13824.00,28.20,67.00,-63.00,-256.00
741,3600.00,5464.00,-16412.00,28.20,-495.00,252.00,-670.00
742,2328.00,5292.00,-15532.00,28.25,-3717.00,106.00,-3268.00
743,2712.00,5320.00,-13540.00,28.20,-821.00,-2724.00,-1268.00
744,2516.00,5612.00,-11796.00,28.29,-1262.00,-3130.00,-217.00
745,1800.00,4644.00,-10520.00,28.25,246.00,-2553.00,1013.00
746,1944.00,6112.00,-12368.00,28.29,-2108.00,460.00,939.00
747,2884.00,6660.00,-13764.00,28.25,-2194.00,1367.00,849.00
748,2684.00,7112.00,-13612.00,28.25,-1951.00,284.00,-345.00
749,2976.00,5148.00,-14124.00,28.20,538.00,-176.00,-132.00
750,2812.00,5484.00,-14012.00,28.25,-7.00,75.00,123.00
751,2916.00,6020.00,-13456.00,28.20,380.00,391.00,-221.00
752,3168.00,6148.00,-13836.00,28.20,894.00,491.00,107.00
753,3028.00,5420.00,-12948.00,28.29,713.00,20.00,215.00
754,3092.00,5240.00,-13284.00,28.15,1589.00,79.00,34.00
755,3092.00,5516.00,-14460.00,28.25,674.00,-1024.00,921.00
756,3060.00,5084.00,-14004.00,28.25,758.00,-306.00,10.00
757,2828.00,4760.00,-14036.00,28.34,288.00,-261.00,-197.00
758,2888.00,4892.00,-13960.00,28.20,-210.00,-291.00,-274.00
759,2904.00,4704.00,-13744.00,28.15,-408.00,-237.00,-80.00
760,2776.00,4392.00,-13608.00,28.25,-594.00,18.00,72.00
761,2888.00,5136.00,-13800.00,28.25,-1628.00,-352.00,392.00
762,3104.00,5336.00,-13988.00,28.20,-578.00,-389.00,46.00
763,2768.00,4988.00,-13884.00,28.29,-530.00,116.00,-136.00
764,2964.00,5592.00,-13712.00,28.25,-472.00,-136.00,-168.00
765,2992.00,5264.00,-13708.00,28.29,-465.00,-186.00,-322.00
766,2904.00,5252.00,-13816.00,28.20,-251.00,-232.00,-183.00
767,3136.00,5140.00,-13824.00,28.25,-323.00,-200.00,-148.00
768,3044.00,5000.00,-13932.00,28.20,-118.00,-172.00,-111.00
769,2972.00,5148.00,-13904.00,28.34,-249.00,-180.00,-234.00
770,2960.00,5136.00,-13840.00,28.29,-271.00,-186.00,-187.00
771,2980.00,5156.00,-13948.00,28.25,-161.00,-129.00,-173.00
772,2972.00,5048.00,-13988.00,28.29,-169.00,-99.00,-225.00
773,3048.00,4964.00,-13976.00,28.29,-193.00,-147.00,-175.00
774,2920.00,5028.00,-13908.00,28.25,-296.00,-176.00,-108.00
775,2896.00,5020.00,-13788.00,28.20,-260.00,-164.00,-80.00
776,3016.00,5088.00,-14052.00,28.25,-282.00,-134.00,-98.00
777,3040.00,5032.00,-13788.00,28.25,-274.00,-163.00,-150.00
778,2928.00,4952.00,-13864.00,28.20,-518.00,-323.00,-264.00
779,2928.00,4972.00,-13760.00,28.25,-447.00,-344.00,-177.00
780,2964.00,5032.00,-13928.00,28.29,-510.00,-240.00,-312.00
781,2948.00,5100.00,-13920.00,28.25,-394.00,-260.00,-270.00
782,2920.00,5192.00,-13980.00,28.29,-377.00,-298.00,-271.00
783,2828.00,5024.00,-13856.00,28.25,-397.00,-287.00,-234.00
784,2812.00,5068.00,-13828.00,28.29,-354.00,-245.00,-213.00
785,3024.00,5016.00,-13876.00,28.25,-358.00,-278.00,-219.00
786,2920.00,5244.00,-14004.00,28.20,-324.00,-274.00,-199.00
787,2812.00,5088.00,-13948.00,28.34,-384.00,-239.00,-196.00
788,2832.00,4988.00,-13764.00,28.25,-320.00,-216.00,-187.00
789,2676.00,5132.00,-13948.00,28.25,-378.00,-224.00,-231.00
790,2888.00,5088.00,-13812.00,28.29,-332.00,-224.00,-193.00
791,2788.00,5168.00,-13888.00,28.25,-314.00,-207.00,-152.00
792,2896.00,5080.00,-13956.00,28.29,-387.00,-199.00,-200.00
793,2852.00,5016.00,-13940.00,28.25,-337.00,-178.00,-146.00
794,2816.00,5016.00,-13892.00,28.29,-408.00,-146.00,-196.00
795,2948.00,5116.00,-13864.00,28.15,-341.00,-186.00,-151.00
796,2768.00,5160.00,-13796.00,28.34,-363.00,-163.00,-187.00
797,2892.00,5136.00,-13772.00,28.25,-331.00,-195.00,-172.00
798,2884.00,5076.00,-13816.00,28.20,-266.00,-240.00,-239.00
799,2788.00,5132.00,-13768.00,28.34,-327.00,-213.00,-159.00
800,2828.00,5064.00,-13844.00,28.29,-408.00,-208.00,-189.00
801,2856.00,5156.00,-13772.00,28.25,-394.00,-245.00,-194.00
802,2888.00,5140.00,-13704.00,28.29,-380.00,-225.00,-196.00
803,2764.00,5088.00,-13896.00,28.34,-371.00,-224.00,-206.00
804,2840.00,5108.00,-13828.00,28.29,-363.00,-206.00,-157.00
805,2800.00,5032.00,-13876.00,28.25,-360.00,-151.00,-179.00
806,2792.00,5112.00,-13840.00,28.20,-311.00,-175.00,-150.00
807,2756.00,5108.00,-13820.00,28.34,-282.00,-157.00,-161.00
808,2764.00,5052.00,-13816.00,28.29,-350.00,-164.00,-168.00
809,2864.00,5060.00,-13968.00,28.25,-347.00,-165.00,-163.00
810,2920.00,4980.00,-14036.00,28.29,-297.00,-158.00,-171.00
811,2944.00,5104.00,-13992.00,28.34,-334.00,-174.00,-200.00
812,2736.00,4992.00,-13808.00,28.34,-373.00,-144.00,-119.00
813,3048.00,5060.00,-13948.00,28.34,-257.00,-151.00,-185.00
814,2724.00,5080.00,-13956.00,28.29,-318.00,-133.00,-216.00
815,2968.00,5076.00,-13912.00,28.29,-306.00,-174.00,-178.00
816,2896.00,5092.00,-13832.00,28.29,-298.00,-155.00,-133.00
817,2840.00,5096.00,-14056.00,28.29,-318.00,-131.00,-138.00
818,3048.00,
Sample,aX,aY,az,Temp,gX,gY,gz
1,3624.00,4544.00,-14000.00,28.29,196.00,484.00,250.00
2,3624.00,4440.00,-13876.00,28.34,146.00,541.00,275.00
3,3644.00,4348.00,-14096.00,28.39,227.00,683.00,226.00
4,4004.00,4340.00,-13872.00,28.25,89.00,668.00,382.00
5,3892.00,4224.00,-13848.00,28.29,70.00,605.00,358.00
6,4124.00,4312.00,-14056.00,28.34,-57.00,487.00,309.00
7,4336.00,4240.00,-13784.00,28.29,213.00,260.00,388.00
8,4296.00,4012.00,-13540.00,28.34,-180.00,92.00,225.00
9,4208.00,4092.00,-13992.00,28.34,104.00,97.00,215.00
10,4256.00,3808.00,-13948.00,28.29,-28.00,201.00,130.00
11,4612.00,3952.00,-13828.00,28.29,241.00,274.00,101.00
12,4740.00,3676.00,-13876.00,28.34,307.00,343.00,-213.00
13,4708.00,3788.00,-13900.00,28.25,-159.00,249.00,-219.00
14,4824.00,3636.00,-13780.00,28.34,-238.00,-6.00,-169.00
15,4652.00,3708.00,-13932.00,28.34,-73.00,1.00,-101.00
16,4712.00,3724.00,-13812.00,28.29,-10.00,-30.00,-80.00
17,4592.00,3688.00,-13876.00,28.39,-196.00,62.00,-272.00
18,4864.00,3776.00,-13936.00,28.29,-178.00,2.00,-373.00
19,4940.00,3652.00,-13632.00,28.25,-363.00,-100.00,-510.00
20,4644.00,3692.00,-14020.00,28.34,-294.00,-209.00,-551.00
21,4124.00,4128.00,-13668.00,28.29,-323.00,-218.00,-787.00
22,4512.00,3968.00,-13708.00,28.29,-362.00,18.00,-1155.00
23,4584.00,4144.00,-13464.00,28.25,-601.00,-61.00,-1299.00
24,4676.00,4044.00,-13464.00,28.34,-555.00,-226.00,-1279.00
25,4832.00,4420.00,-15376.00,28.39,-592.00,-546.00,-976.00
26,5540.00,3656.00,-14248.00,28.39,488.00,-799.00,-606.00
27,5176.00,3016.00,-14196.00,28.34,-453.00,-456.00,-772.00
28,4952.00,2908.00,-13612.00,28.25,231.00,-603.00,-435.00
29,5200.00,3220.00,-14248.00,28.34,128.00,-680.00,-162.00
30,4764.00,2964.00,-13240.00,28.25,-286.00,-987.00,176.00
31,4952.00,3208.00,-13768.00,28.44,-552.00,-992.00,618.00
32,3724.00,3620.00,-13228.00,28.29,-1050.00,-1199.00,441.00
33,2812.00,3664.00,-13832.00,28.39,-829.00,-730.00,322.00
34,3136.00,4572.00,-14580.00,28.34,-901.00,-846.00,28.00
35,3428.00,4016.00,-13296.00,28.39,-926.00,-620.00,-543.00
36,3616.00,4632.00,-14196.00,28.34,-499.00,-567.00,-784.00
37,3948.00,4028.00,-13980.00,28.39,-312.00,-953.00,-720.00
38,3428.00,4280.00,-14188.00,28.29,-907.00,-1395.00,-410.00
39,3572.00,3980.00,-14428.00,28.34,-905.00,-828.00,-514.00
40,3572.00,4292.00,-14000.00,28.39,-1020.00,-732.00,-506.00
41,3308.00,4516.00,-14168.00,28.34,-976.00,-606.00,-582.00
42,3224.00,4488.00,-14164.00,28.34,-781.00,-490.00,-424.00
43,3224.00,4484.00,-13968.00,28.29,-778.00,-447.00,-322.00
44,3152.00,4728.00,-13992.00,28.29,-655.00,-375.00,-184.00
45,3000.00,4640.00,-14272.00,28.34,-434.00,-239.00,-251.00
46,3040.00,4616.00,-14020.00,28.34,-390.00,-101.00,-130.00
47,3224.00,4632.00,-14076.00,28.29,-152.00,-54.00,-95.00
48,3244.00,4488.00,-14012.00,28.29,-433.00,-58.00,-144.00
49,3288.00,4380.00,-13880.00,28.39,-434.00,-161.00,-276.00
50,3136.00,4648.00,-13952.00,28.39,-413.00,-129.00,-399.00
51,2944.00,4608.00,-13872.00,28.25,-373.00,-133.00,-528.00
52,3172.00,4532.00