-4220.00,4092.00,-13176.00,30.51,-504.00,-441.00,-698.00                        
686,-3916.00,4280.00,-13824.00,30.51,-194.00,-345.00,-538.00                    
687,                                                                          
Sample,aX,aY,az,Temp,gX,gY,gz                                                   
1,-3524.00,3668.00,-13852.00,30.55,1018.00,512.00,56.00                         
2,-3428.00,3636.00,-14220.00,30.46,254.00,217.00,-48.00                         
3,-3848.00,3560.00,-13900.00,30.41,-840.00,-47.00,-31.00                        
4,-3664.00,4088.00,-14436.00,30.46,-1432.00,72.00,97.00                         
5,-3640.00,3768.00,-13504.00,30.46,-254.00,434.00,-281.00                       
6,-3152.00,3468.00,-13808.00,30.41,1033.00,1066.00,-448.00
7,-3252.00,3240.00,-14040.00,30.41,651.00,960.00,-470.00
8,-2676.00,3400.00,-14332.00,30.46,1624.00,1521.00,-863.00
9,-2216.00,3876.00,-14920.00,30.46,925.00,760.00,-1147.00
10,-2300.00,3476.00,-14816.00,30.41,936.00,1320.00,-712.00
11,-2172.00,2892.00,-13724.00,30.46,-316.00,171.00,-232.00
12,-1864.00,2972.00,-14444.00,30.37,-1181.00,-110.00,387.00
13,-2052.00,2984.00,-14704.00,30.46,-1166.00,-405.00,574.00
14,-1644.00,3976.00,-14888.00,30.46,-811.00,-1167.00,457.00
15,-2160.00,4284.00,-14692.00,30.46,-971.00,-1580.00,-717.00
16,-1316.00,5108.00,-14236.00,30.46,333.00,-1428.00,-2716.00
17,-1476.00,5104.00,-12868.00,30.46,954.00,-889.00,-6073.00
18,-1964.00,1652.00,-11656.00,30.46,270.00,2509.00,-9478.00
19,-3116.00,-96.00,-11824.00,30.46,-789.00,7511.00,-9146.00
20,-2532.00,48.00,-13816.00,30.46,2722.00,8868.00,-4166.00
21,-3744.00,3364.00,-17736.00,30.37,-506.00,591.00,-2725.00
22,-140.00,4308.00,-16584.00,30.37,-1295.00,-1970.00,-3668.00
23,-1572.00,-428.00,-13244.00,30.46,-1840.00,5952.00,-4558.00
24,-2304.00,-4308.00,-11812.00,30.41,-5415.00,9919.00,7465.00
25,-568.00,2072.00,-12608.00,30.37,807.00,3128.00,12404.00
26,2044.00,2236.00,-19424.00,30.51,-7052.00,1304.00,15606.00
27,3152.00,4300.00,-18724.00,30.37,-3959.00,-2090.00,11935.00
28,2892.00,3636.00,-13060.00,30.46,-4254.00,-2489.00,11214.00
29,3160.00,5652.00,-15764.00,30.41,-1270.00,-2020.00,7267.00
30,3648.00,4088.00,-13208.00,30.41,-2756.00,422.00,6363.00
31,4660.00,4548.00,-17564.00,30.41,-619.00,-147.00,5525.00
32,2844.00,2804.00,-13096.00,30.32,-3305.00,-1313.00,1855.00
33,3720.00,7052.00,-13996.00,30.41,-973.00,1289.00,-752.00
34,1204.00,3784.00,-14192.00,30.41,1056.00,-166.00,-4037.00
35,-340.00,-1996.00,-9028.00,30.41,-866.00,731.00,-480.00
36,3464.00,2268.00,-14776.00,30.37,537.00,1034.00,1672.00
37,3880.00,6436.00,-17160.00,30.32,-1135.00,-2944.00,-9.00
38,2876.00,1176.00,-13332.00,30.32,-2036.00,-1022.00,204.00
39,2704.00,4868.00,-15580.00,30.27,59.00,-1378.00,-779.00
40,2768.00,3504.00,-14244.00,30.32,-726.00,-996.00,-1421.00
41,2364.00,4812.00,-14224.00,30.41,-1420.00,-965.00,-1812.00
42,2144.00,3872.00,-14352.00,30.37,-401.00,-1156.00,-1236.00
43,2348.00,3252.00,-14396.00,30.37,-183.00,-826.00,-641.00
44,1928.00,3768.00,-14932.00,30.37,371.00,-481.00,-245.00
45,1400.00,3880.00,-13984.00,30.41,-612.00,-630.00,-20.00
46,1400.00,3824.00,-14436.00,30.37,48.00,-539.00,-182.00
47,1544.00,3920.00,-14480.00,30.41,-380.00,-223.00,19.00
48,1456.00,3976.00,-14408.00,30.41,-474.00,-41.00,49.00
49,1636.00,5000.00,-15068.00,30.37,-1376.00,-681.00,-162.00
50,1232.00,4656.00,-13624.00,30.37,-3646.00,-1586.00,-2055.00
51,124.00,1600.00,-11544.00,30.32,-2328.00,245.00,-2907.00
52,2412.00,1908.00,-15440.00,30.27,-1220.00,-885.00,333.00
53,1752.00,8052.00,-15588.00,30.37,-4061.00,-842.00,-2518.00
54,988.00,5872.00,-16352.00,30.27,157.00,940.00,-1242.00
55,732.00,5292.00,-14368.00,30.32,-2339.00,795.00,-1525.00
56,660.00,4356.00,-14136.00,30.41,-2765.00,323.00,-74.00
57,3220.00,7876.00,-15528.00,30.37,-1040.00,3075.00,-703.00
58,5840.00,7680.00,-12752.00,30.27,-825.00,5574.00,-1133.00
59,4240.00,5896.00,-14492.00,30.37,-241.00,4773.00,-1882.00
60,4472.00,4232.00,-11988.00,30.37,-107.00,3649.00,-2365.00
61,4728.00,3652.00,-13088.00,30.27,3084.00,2256.00,-1868.00
62,3020.00,4876.00,-9652.00,30.27,6172.00,-1904.00,-1132.00
63,1528.00,6588.00,-14428.00,30.37,6096.00,-1390.00,1115.00
64,2544.00,5892.00,-15220.00,30.27,-864.00,-1947.00,4185.00
65,1784.00,2564.00,-14360.00,30.37,1018.00,-1665.00,5606.00
66,996.00,2860.00,-15288.00,30.27,-1451.00,-3128.00,4026.00
67,1676.00,4008.00,-13212.00,30.32,-690.00,-2546.00,4453.00
68,3980.00,4256.00,-14184.00,30.32,-1391.00,-2200.00,3731.00
69,3052.00,3920.00,-13368.00,30.37,-2247.00,-2630.00,469.00
70,1976.00,4476.00,-11984.00,30.27,2478.00,-3082.00,-1812.00
71,444.00,4556.00,-16224.00,30.37,327.00,-2812.00,-3423.00
72,244.00,3708.00,-17528.00,30.32,-1756.00,-1242.00,-2820.00
73,2432.00,4972.00,-17104.00,30.27,-6217.00,2409.00,-2643.00
74,608.00,3636.00,-15168.00,30.37,-2452.00,3069.00,-1463.00
75,2056.00,3360.00,-13492.00,30.37,1432.00,3806.00,-1157.00
76,1724.00,3660.00,-10120.00,30.27,2434.00,2725.00,267.00
77,2008.00,3552.00,-9852.00,30.32,4857.00,2241.00,1582.00
78,2224.00,4348.00,-14888.00,30.27,-765.00,390.00,3905.00
79,3556.00,6480.00,-17348.00,30.22,-2282.00,-509.00,3793.00
80,2316.00,3488.00,-11172.00,30.37,-3115.00,-995.00,3020.00
81,4208.00,4280.00,-12124.00,30.27,-1309.00,238.00,2643.00
82,5548.00,6276.00,-15680.00,30.22,-3376.00,-2113.00,276.00
83,2116.00,6012.00,-17464.00,30.32,-2381.00,-3309.00,-1482.00
84,3376.00,3992.00,-13288.00,30.27,-1838.00,-908.00,-1018.00
85,2800.00,6028.00,-16808.00,30.27,-1918.00,-799.00,-1552.00
86,-992.00,2688.00,-16820.00,30.32,-554.00,-3907.00,-1644.00
87,-32.00,3800.00,-10808.00,30.32,-2690.00,-2976.00,-329.00
88,3076.00,4224.00,-10776.00,30.32,2449.00,65.00,799.00
89,2580.00,3300.00,-10416.00,30.22,766.00,2921.00,243.00
90,1024.00,3548.00,-15628.00,30.22,-389.00,371.00,1168.00
91,1268.00,5072.00,-13028.00,30.22,-381.00,-867.00,1283.00
92,1136.00,4308.00,-9776.00,30.37,838.00,-1209.00,1286.00
93,3420.00,11180.00,-20660.00,30.22,2696.00,-1473.00,-278.00
94,1220.00,3524.00,-14140.00,30.13,-2238.00,-1083.00,-474.00
95,1640.00,4728.00,-14024.00,30.27,-333.00,-185.00,-1011.00
96,2464.00,4144.00,-14224.00,30.18,-99.00,-219.00,-1743.00
97,2012.00,4160.00,-14572.00,30.32,-492.00,157.00,-1825.00
98,1916.00,4824.00,-14184.00,30.22,-1173.00,-76.00,-2132.00
99,1964.00,4760.00,-14292.00,30.22,-697.00,-226.00,-1814.00
100,2008.00,5232.00,-14424.00,30.32,-1856.00,-71.00,-1565.00
101,2532.00,4720.00,-12760.00,30.22,-365.00,343.00,-1322.00
102,2468.00,5032.00,-13996.00,30.22,778.00,249.00,-1478.00
103,2044.00,5152.00,-14564.00,30.27,-476.00,-226.00,-1711.00
104,1728.00,4560.00,-14092.00,30.22,-759.00,-217.00,-1620.00
105,1480.00,3964.00,-13988.00,30.22,-690.00,-108.00,-801.00
106,544.00,4520.00,-14672.00,30.22,-977.00,48.00,-296.00
107,548.00,4256.00,-15316.00,30.27,-3173.00,252.00,-997.00
108,284.00,5804.00,-15744.00,30.32,-871.00,-1816.00,-1413.00
109,920.00,5172.00,-12824.00,30.22,-1132.00,-2808.00,-1298.00
110,-20.00,2868.00,-10100.00,30.18,596.00,-1085.00,89.00
111,1100.00,2596.00,-10792.00,30.22,2283.00,2038.00,1977.00
112,2356.00,4888.00,-14860.00,30.22,8141.00,586.00,2379.00
113,1208.00,4332.00,-16228.00,30.27,-1896.00,-503.00,1461.00
114,1620.00,5456.00,-12996.00,30.22,374.00,334.00,418.00
115,2008.00,4388.00,-14216.00,30.22,1557.00,-218.00,-894.00
116,1016.00,5100.00,-14052.00,30.22,-224.00,-1063.00,-1455.00
117,1512.00,4484.00,-15588.00,30.27,-215.00,-870.00,-376.00
118,1448.00,3880.00,-14668.00,30.18,-1804.00,-1247.00,-714.00
119,1140.00,3428.00,-14812.00,30.13,-1116.00,-955.00,-1111.00
120,436.00,4200.00,-12964.00,30.22,-5020.00,144.00,-2583.00
121,228.00,3664.00,-13044.00,30.27,-1832.00,933.00,-1410.00
122,1492.00,5272.00,-14420.00,30.22,-114.00,689.00,1067.00
123,2288.00,5648.00,-15616.00,30.22,1951.00,-93.00,902.00
124,1760.00,4000.00,-13980.00,30.18,-805.00,-325.00,-170.00
125,1272.00,5424.00,-14780.00,30.27,139.00,-615.00,1088.00
126,1356.00,4316.00,-13636.00,30.22,-201.00,-735.00,927.00
127,1192.00,5212.00,-14180.00,30.22,-534.00,-382.00,137.00
128,944.00,4984.00,-13588.00,30.08,29.00,49.00,544.00
129,1496.00,5148.00,-14224.00,30.13,-102.00,-23.00,588.00
130,1512.00,4904.00,-14044.00,30.32,-643.00,-530.00,249.00
131,1740.00,4620.00,-14104.00,30.18,-542.00,-68.00,-12.00
132,1192.00,5020.00,-13888.00,30.13,-485.00,-477.00,26.00
133,888.00,5068.00,-14008.00,30.18,-741.00,-482.00,-241.00
134,824.00,4824.00,-14108.00,30.13,-503.00,-353.00,-121.00
135,1232.00,4904.00,-13940.00,30.13,-853.00,-338.00,88.00
136,1552.00,4732.00,-14752.00,30.22,-972.00,-170.00,625.00
137,1756.00,5780.00,-14216.00,30.22,-2921.00,128.00,2421.00
138,1660.00,5400.00,-14896.00,30.22,-1642.00,1015.00,2665.00
139,1976.00,6216.00,-14060.00,30.13,-492.00,1818.00,645.00
140,4016.00,9528.00,-16804.00,30.22,-2395.00,4892.00,-2300.00
141,6952.00,8904.00,-14560.00,30.22,3393.00,4625.00,-7149.00
142,7500.00,7716.00,-19580.00,30.22,-1625.00,5740.00,-12786.00
143,2084.00,3728.00,-15700.00,30.13,-14412.00,5688.00,-15045.00
144,-912.00,3596.00,-17120.00,30.18,-4004.00,1919.00,-15541.00
145,-2900.00,4976.00,-11196.00,30.13,-3574.00,-9225.00,-18154.00
146,-6832.00,2472.00,-6648.00,30.22,8160.00,-12487.00,-10779.00
147,-7804.00,-68.00,-2144.00,30.18,10869.00,-10294.00,-1677.00
148,-3456.00,3640.00,-2880.00,30.13,12800.00,-3999.00,5601.00
149,3648.00,9488.00,-18212.00,30.18,10327.00,5191.00,4657.00
150,-56.00,6200.00,-15416.00,30.22,4535.00,4244.00,333.00
151,-1428.00,5272.00,-18548.00,30.13,-2443.00,3561.00,-805.00
152,-2064.00,4992.00,-15180.00,30.08,-586.00,2042.00,1147.00
153,-2336.00,1012.00,-13064.00,30.13,-4062.00,1494.00,1022.00
154,-2844.00,5632.00,-14816.00,30.22,-2869.00,-56.00,1029.00
155,-2496.00,5484.00,-18180.00,30.08,5457.00,1209.00,-3233.00
156,-2692.00,4112.00,-14596.00,30.18,-2548.00,-1571.00,1620.00
157,-2380.00,5328.00,-13112.00,30.13,-1536.00,-1092.00,149.00
158,-1392.00,5652.00,-14020.00,30.18,1268.00,-168.00,424.00
159,-2096.00,5440.00,-15076.00,30.27,1445.00,-184.00,1203.00
160,-1944.00,3036.00,-13964.00,30.18,105.00,-404.00,1615.00
161,-2000.00,4120.00,-11924.00,30.18,-1737.00,850.00,604.00
162,-2672.00,5232.00,-12832.00,30.18,-170.00,870.00,-209.00
163,-1668.00,5480.00,-15892.00,30.27,-1529.00,-1.00,564.00
164,-1900.00,5200.00,-13340.00,30.18,-493.00,-139.00,808.00
165,-1760.00,5548.00,-14404.00,30.22,-145.00,-41.00,150.00
166,-1632.00,4788.00,-14132.00,30.13,-313.00,-352.00,632.00
167,-1428.00,5064.00,-13300.00,30.18,-296.00,-406.00,145.00
168,-1688.00,4928.00,-14376.00,30.18,192.00,-8.00,-391.00
169,-1496.00,5044.00,-14040.00,30.08,46.00,-151.00,-359.00
170,-1440.00,4920.00,-13968.00,30.13,9.00,-55.00,-469.00
171,-1468.00,4876.00,-13904.00,30.18,-127.00,-172.00,-472.00
172,-1500.00,4916.00,-13948.00,30.08,-525.00,-615.00,-183.00
173,-1652.00,4824.00,-14064.00,30.13,-337.00,-725.00,76.00
174,-1696.00,4804.00,-13964.00,30.18,-178.00,-364.00,70.00
175,-1564.00,4720.00,-13956.00,30.13,-185.00,-166.00,-469.00
176,-1732.00,4880.00,-14104.00,30.13,-225.00,-54.00,-474.00
177,-1700.00,4888.00,-14036.00,30.13,-310.00,-20.00,-218.00
178,-1528.00,4696.00,-13932.00,30.13,-372.00,-65.00,-128.00
179,-1564.00,4804.00,-14332.00,30.22,-580.00,-6.00,17.00
180,-1524.00,4812.00,-14100.00,30.08,-887.00,142.00,-296.00
181,-1564.00,4924.00,-14076.00,30.18,-429.00,32.00,-158.00
182,-1184.00,4952.00,-14028.00,30.13,-1033.00,362.00,-85.00
183,-1240.00,4880.00,-14260.00,30.13,-3042.00,-98.00,-942.00
184,-476.00,5552.00,-17524.00,30.22,-3225.00,-1217.00,-1277.00
185,-984.00,6716.00,-11964.00,30.13,1984.00,-13.00,-73.00
186,-896.00,4896.00,-12780.00,30.18,2640.00,212.00,893.00
187,-2560.00,5520.00,-12304.00,30.13,-1223.00,63.00,341.00
188,-2036.00,6044.00,-15892.00,30.08,288.00,-672.00,387.00
189,-1516.00,5192.00,-13164.00,30.08,1440.00,-2070.00,783.00
190,-1944.00,4144.00,-13508.00,30.08,-349.00,-1026.00,-97.00
191,-1960.00,5124.00,-14260.00,30.08,-692.00,-474.00,-20.00
192,-1696.00,5016.00,-13692.00,30.08,-397.00,16.00,-726.00
193,-1728.00,5104.00,-14112.00,30.13,-605.00,-44.00,-463.00
194,-1572.00,5276.00,-14316.00,30.13,-405.00,349.00,-345.00
195,-1932.00,4912.00,-14020.00,30.04,-171.00,60.00,-209.00
196,-1768.00,5348.00,-13548.00,30.13,-234.00,78.00,-498.00
197,-1380.00,4284.00,-13640.00,30.18,-250.00,-235.00,-150.00
198,-1680.00,5080.00,-13944.00,30.08,-877.00,-409.00,36.00
199,-1892.00,5144.00,-13692.00,29.99,-198.00,40.00,-59.00
200,-1556.00,4892.00,-14148.00,30.04,-31.00,-32.00,216.00
201,-1612.00,4892.00,-14068.00,30.08,-2032.00,-820.00,288.00
202,-1736.00,5536.00,-13828.00,30.08,-1400.00,-371.00,139.00
203,-1572.00,5472.00,-13776.00,29.99,-575.00,-424.00,67.00
204,-1692.00,5400.00,-13732.00,29.99,-192.00,-476.00,117.00
205,-1776.00,5352.00,-13836.00,30.04,293.00,-641.00,237.00
206,-1776.00,5196.00,-14168.00,30.13,282.00,-543.00,263.00
207,-1628.00,5088.00,-13944.00,30.13,-153.00,-215.00,-222.00
208,-2244.00,6704.00,-13780.00,30.04,-199.00,295.00,-600.00
209,-1568.00,.00,-506.00,-344.00
284,-2684.00,3952.00,-14004.00,29.89,-353.00,-382.00,-606.00
285,-2684.00,3892.00,-14088.00,29.94,-371.305.00,-506.00,-344.00
284,-2684.00,3952.00,-14004.00,29.89,-353.00,-382.00,-606.00
285,-2684.00,3892.00,-14088.00,29.94,-371.00,-440.00,-500.00
286,-2780.00,3868.00,-14092.00,29.94,-267.00,-483.00,-313.00
287,-2888.00,3964.00,-14176.00,29.85,-200.00,-301.00,-333.00
288,-2880.00,3812.00,-14096.00,29.94,-290.00,-300.00,-412.00
289,-2808.00,3760.00,-14220.00,29.94,-96.00,-330.00,-263.00
290,-2784.00,3800.00,-14072.00,29.85,-223.00,-237.00,-242.00
291,-2896.00,3808.00,-14172.00,29.94,-182.00,-165.00,-215.00
292,-2856.00,3816.00,-14132.00,29.89,-192.00,-141.00,-201.00
293,-2844.00,3748.00,-14032.00,29.89,-343.00,-117.00,-249.00
294,-2800.00,3832.00,-14252.00,29.80,-287.00,-54.00,-235.00
295,-2820.00,3608.00,-14000.00,29.89,-398.00,-69.00,-262.00
296,-2816.00,3824.00,-14068.00,29.89,-312.00,-140.00,-275.00
297,-2836.00,3744.00,-14196.00,29.94,-276.00,-150.00,-123.00
298,-2716.00,3652.00,-14136.00,29.94,-278.00,-191.00,-129.00
299,-2888.00,3744.00,-14144.00,29.94,-306.00,-184.00,-192.00
300,-2704.00,3668.00,-14072.00,29.94,-345.00,-238.00,-239.00
301,-2872.00,3768.00,-14172.00,29.80,-341.00,-323.00,-229.00
302,-2816.00,3712.00,-14056.00,29.89,-360.00,-205.00,-233.00
303,-2688.00,3672.00,-14152.00,29.89,-417.00,-241.00,-267.00
304,-2864.00,3720.00,-14172.00,29.89,-351.00,-321.00,-251.00
305,-2836.00,3712.00,-14052.00,29.85,-269.00,-377.00,-162.00
306,-2848.00,3660.00,-14092.00,29.85,-301.00,-292.00,-190.00
307,-2772.00,3784.00,-14168.00,29.94,-305.00,-189.00,-215.00
308,-2696.00,3672.00,-14132.00,29.99,-331.00,-140.00,-309.00
309,-2864.00,3708.00,-14172.00,29.80,-310.00,-191.00,-267.00
310,-2732.00,3720.00,-14032.00,29.89,-482.00,-78.00,-143.00
311,-2660.00,3648.00,-14148.00,29.89,-453.00,-81.00,-258.00
312,-2836.00,3716.00,-14132.00,29.80,-374.00,-115.00,-257.00
313,-2680.00,3668.00,-14112.00,29.80,-299.00,-245.00,-149.00
314,-2768.00,3636.00,-14180.00,29.89,-350.00,-243.00,-160.00
315,-2844.00,3748.00,-14000.00,29.89,-455.00,-241.00,-180.00
316,-2712.00,3716.00,-14204.00,29.80,-409.00,-225.00,-268.00
317,-2676.00,3712.00,-14008.00,29.85,-338.00,-258.00,-303.00
318,-2848.00,3632.00,-14072.00,29.85,-298.00,-263.00,-250.00
319,-2680.00,3632.00,-14204.00,29.85,-363.00,-273.00,-278.00
320,-2748.00,3724.00,-14096.00,29.94,-398.00,-236.00,-265.00
321,-2728.00,3784.00,-14060.00,29.85,-378.00,-213.00,-272.00
322,-2836.00,3720.00,-13924.00,29.85,-354.00,-249.00,-242.00
323,-2760.00,3728.00,-14092.00,29.85,-324.00,-139.00,-156.00
324,-2796.00,3844.00,-13920.00,29.85,-402.00,-220.00,-311.00
325,-2744.00,3660.00,-14060.00,29.85,-332.00,-201.00,-216.00
326,-2768.00,3828.00,-14036.00,29.80,-365.00,-244.00,-226.00
327,-2720.00,3620.00,-14064.00,29.89,-365.00,-264.00,-141.00
328,-2756.00,3788.00,-14268.00,29.89,-402.00,-229.00,-247.00
329,-2796.00,3784.00,-14172.00,29.80,-362.00,-157.00,-241.00
330,-2828.00,3652.00,-14156.00,29.89,-289.00,-250.00,-223.00
331,-2792.00,3676.00,-14232.00,29.99,-358.00,-227.00,-214.00
332,-2840.00,3756.00,-14176.00,29.85,-422.00,-243.00,-229.00
333,-2780.00,3672.00,-14028.00,29.85,-393.00,-196.00,-253.00
334,-2700.00,3664.00,-14236.00,29.85,-353.00,-171.00,-198.00
335,-2756.00,3644.00,-14112.00,29.85,-264.00,-233.00,-188.00
336,-2824.00,3700.00,-14176.00,29.85,-318.00,-270.00,-180.00
?
Sample,aX,aY,az,Temp,gX,gY,gz
1,-2696.00,3768.00,-14168.00,29.80,-294.00,-141.00,-237.00
2,-2692.00,3708.00,-14088.00,29.75,-336.00,-262.00,-253.00
3,-2772.00,3784.00,-14148.00,29.66,-389.00,-213.00,-262.00
4,-2728.00,3784.00,-14228.00,29.80,-390.00,-253.00,-226.00
5,-2816.00,3792.00,-14148.00,29.80,-378.00,-244.00,-268.00
6,-2724.00,3824.00,-14068.00,29.75,-340.00,-242.00,-272.00
7,-2756.00,3752.00,-14212.00,29.71,-321.00,-253.00,-267.00
8,-2760.00,3692.00,-14212.00,29.80,-299.00,-259.00,-305.00
9,-2900.00,3664.00,-14148.00,29.75,-184.00,-361.00,-315.00
10,-2764.00,3588.00,-14168.00,29.75,-34.00,-699.00,-298.00
11,-2704.00,3928.00,-14068.00,29.71,-36.00,-469.00,-387.00
12,-2864.00,3500.00,-14244.00,29.66,-171.00,-392.00,-381.00
13,-2924.00,3556.00,-14228.00,29.75,-168.00,-312.00,-319.00
14,-2844.00,3604.00,-14244.00,29.75,-222.00,-273.00,-265.00
15,-2916.00,3564.00,-14264.00,29.80,-336.00,-281.00,-245.00
16,-3064.00,3524.00,-14028.00,29.71,-393.00,-231.00,-400.00
17,-2924.00,3504.00,-14208.00,29.75,-345.00,-212.00,-346.00
18,-3028.00,3536.00,-14180.00,29.75,-313.00,-314.00,-311.00
19,-2880.00,3516.00,-14204.00,29.57,-142.00,-411.00,-224.00
20,-2940.00,3520.00,-14220.00,29.75,-92.00,-441.00,-130.00
21,-3028.00,3488.00,-14364.00,29.80,-266.00,-337.00,-267.00
22,-2916.00,3508.00,-14108.00,29.71,-437.00,-147.00,-234.00
23,-2972.00,3456.00,-14124.00,29.71,-560.00,59.00,-144.00
24,-2984.00,3604.00,-14144.00,29.66,-570.00,107.00,-92.00
25,-2804.00,3504.00,-13968.00,29.61,-492.00,186.00,-135.00
26,-2860.00,3456.00,-14084.00,29.80,-500.00,171.00,-106.00
27,-2664.00,3592.00,-14132.00,29.75,-501.00,411.00,-74.00
28,-2612.00,3588.00,-14212.00,29.80,-366.00,458.00,-248.00
29,-2520.00,3572.00,-14188.00,29.75,-447.00,560.00,-246.00
30,-2512.00,3608.00,-14200.00,29.75,-515.00,478.00,-313.00
31,-2384.00,3660.00,-14268.00,29.71,-487.00,306.00,-231.00
32,-2460.00,3608.00,-14228.00,29.66,-308.00,43.00,-181.00
33,-2288.00,3628.00,-14432.00,29.61,-261.00,7.00,-25.00
34,-2304.00,3612.00,-14176.00,29.66,-331.00,-313.00,-181.00
35,-2260.00,3620.00,-14288.00,29.75,-254.00,-537.00,-192.00
36,-2384.00,3564.00,-14108.00,29.71,-86.00,-889.00,-268.00
37,-2544.00,3484.00,-14288.00,29.80,-79.00,-1042.00,-346.00
38,-2624.00,3536.00,-14168.00,29.66,-237.00,-1203.00,-489.00
39,-2760.00,3420.00,-14200.00,29.71,-202.00,-1295.00,-383.00
40,-2856.00,3468.00,-14188.00,29.80,-98.00,-1179.00,-356.00
41,-3056.00,3352.00,-14072.00,29.71,37.00,-972.00,-634.00
42,-3188.00,3220.00,-14132.00,29.71,324.00,-983.00,-840.00
43,-3152.00,3264.00,-14028.00,29.71,337.00,-833.00,-482.00
44,-3252.00,2956.00,-14184.00,29.66,437.00,-859.00,-676.00
45,-3352.00,3108.00,-14024.00,29.66,-509.00,-999.00,-828.00
46,-3580.00,3124.00,-14120.00,29.71,-87.00,-884.00,-972.00
47,-3844.00,3052.00,-14260.00,29.80,-190.00,-740.00,-707.00
48,-3788.00,2856.00,-13820.00,29.66,202.00,-721.00,-818.00
49,-3732.00,2848.00,-14200.00,29.66,215.00,-792.00,-664.00
50,-3804.00,2536.00,-14216.00,29.61,-16.00,-948.00,-530.00
51,-3940.00,2580.00,-13972.00,29.80,-50.00,-880.00,-582.00
52,-4044.00,2872.00,-14244.00,29.66,-632.00,-423.00,-608.00
53,-3972.00,2816.00,-13820.00,29.75,-665.00,264.00,-573.00
54,-4020.00,2716.00,-14152.00,29.71,-656.00,497.00,-549.00
55,-4008.00,2740.00,-13924.00,29.66,-428.00,634.00,-193.00
56,-3728.00,2664.00,-14124.00,29.61,-238.00,551.00,174.00
57,-3572.00,2768.00,-14216.00,29.61,-695.00,666.00,663.00
58,-3532.00,2788.00,-14256.00,29.66,-295.00,1001.00,429.00
59,-3392.00,2700.00,-14256.00,29.61,91.00,1249.00,330.00
60,-3176.00,2804.00,-14060.00,29.66,616.00,886.00,324.00
61,-2968.00,2656.00,-14244.00,29.66,347.00,530.00,571.00
62,-2660.00,2808.00,-14980.00,29.61,-630.00,238.00,1410.00
63,-2728.00,2660.00,-14328.00,29.66,-734.00,455.00,1339.00
64,-2740.00,2712.00,-14152.00,29.61,-889.00,390.00,633.00
65,-2568.00,2652.00,-14588.00,29.66,-384.00,286.00,370.00
66,-2560.00,3132.00,-14568.00,29.61,-242.00,283.00,668.00
67,-2228.00,2736.00,-14308.00,29.75,-256.00,561.00,624.00
68,-2204.00,2768.00,-14648.00,29.61,-364.00,583.00,297.00
69,-2028.00,2732.00,-14468.00,29.66,-393.00,459.00,5.00
70,-2052.00,2948.00,-14540.00,29.66,7.00,236.00,-48.00
71,-1900.00,2836.00,-14508.00,29.66,501.00,73.00,30.00
72,-1852.00,2640.00,-14880.00,29.66,299.00,144.00,-84.00
73,-1776.00,2684.00,-14500.00,29.75,-160.00,205.00,-287.00
74,-1560.00,2676.00,-14680.00,29.57,-389.00,263.00,-528.00
75,-1712.00,2724.00,-14560.00,29.71,-659.00,264.00,-776.00
76,-1888.00,2732.00,-14448.00,29.66,-541.00,257.00,-678.00
77,-1608.00,2656.00,-14572.00,29.66,-556.00,-187.00,-496.00
78,-1616.00,2596.00,-14672.00,29.71,-806.00,-317.00,-443.00
79,-1724.00,2896.00,-14424.00,29.61,-634.00,-378.00,-426.00
80,-1464.00,2408.00,-14516.00,29.61,-368.00,-303.00,-346.00
81,-1736.00,2844.00,-14540.00,29.66,-294.00,-470.00,-370.00
82,-1664.00,2696.00,-14592.00,29.66,-397.00,-490.00,-444.00
83,-1884.00,2660.00,-14668.00,29.66,-358.00,-499.00,-595.00
84,-1652.00,2628.00,-14484.00,29.75,-496.00,-259.00,-1085.00
85,-1452.00,2944.00,-15160.00,29.66,81.00,92.00,-1852.00
86,-1432.00,3100.00,-14132.00,29.57,2116.00,897.00,-3591.00
87,1680.00,3284.00,-15608.00,29.66,1950.00,-2725.00,-4431.00
88,-736.00,3236.00,-13184.00,29.66,4143.00,-5227.00,-8034.00
89,-2576.00,972.00,-12908.00,29.57,481.00,-4477.00,-8626.00
90,-4128.00,-1376.00,-11104.00,29.61,152.00,-153.00,-7904.00
91,-3068.00,-1112.00,-12728.00,29.71,-3707.00,2428.00,-5986.00
92,-4776.00,-2656.00,-12476.00,29.66,-2821.00,4427.00,-2310.00
93,-3276.00,160.00,-13756.00,29.61,1794.00,3348.00,-3476.00
94,-1852.00,-2232.00,-14840.00,29.66,-8990.00,2783.00,282.00
95,-3016.00,-2952.00,-12040.00,29.57,-1943.00,8654.00,6900.00
96,-1012.00,932.00,-17008.00,29.71,-1874.00,2242.00,6381.00
97,872.00,2324.00,-19012.00,29.57,-436.00,1819.00,9573.00
98,520.00,2300.00,-14352.00,29.66,-1793.00,-319.00,7926.00
99,664.00,3340.00,-15976.00,29.61,-2638.00,-1973.00,6663.00
100,812.00,2228.00,-15684.00,29.61,-1678.00,-3498.00,6020.00
101,1552.00,1828.00,-16380.00,29.66,-910.00,-1637.00,5838.00
102,996.00,2284.00,-15236.00,29.66,-816.00,-1861.00,4628.00
103,24.00,2520.00,-13532.00,29.66,-381.00,-906.00,3773.00
104,28.00,3676.00,-14332.00,29.61,-847.00,-794.00,2728.00
105,-292.00,3900.00,-13532.00,29.57,-1253.00,-597.00,964.00
106,-224.00,2852.00,-14084.00,29.61,-2059.00,-1259.00,553.00
107,-788.00,3608.00,-14176.00,29.61,-2276.00,-1003.00,541.00
108,-348.00,2972.00,-15360.00,29.61,-1352.00,-319.00,-109.00
109,-468.00,3604.00,-14772.00,29.61,-1244.00,-908.00,-168.00
110,-44.00,3336.00,-14540.00,29.52,-1744.00,-1354.00,-44.00
111,256.00,3396.00,-14204.00,29.52,-1143.00,-964.00,-420.00
112,-300.00,3876.00,-13812.00,29.57,-491.00,-51.00,-419.00
113,-396.00,4000.00,-14048.00,29.61,-46.00,419.00,-743.00
114,8.00,3120.00,-14668.00,29.57,-1742.00,-370.00,110.00
115,-52.00,3904.00,-14752.00,29.61,-317.00,101.00,-349.00
116,300.00,3528.00,-14520.00,29.66,-462.00,57.00,-525.00
117,400.00,3352.00,-14600.00,29.57,445.00,580.00,-116.00
118,256.00,3180.00,-14268.00,29.57,710.00,1147.00,203.00
119,40.00,3716.00,-14180.00,29.61,-54.00,1271.00,836.00
120,-76.00,3928.00,-14528.00,29.61,76.00,1008.00,1253.00
121,172.00,3812.00,-14432.00,29.66,-629.00,1049.00,1158.00
122,-88.00,3948.00,-14380.00,29.61,-1568.00,151.00,614.00
123,396.00,4188.00,-13796.00,29.57,-1888.00,689.00,671.00
124,768.00,3896.00,-14584.00,29.61,-956.00,568.00,442.00
125,392.00,4260.00,-13844.00,29.61,-672.00,-11.00,395.00
126,664.00,4508.00,-15216.00,29.66,62.00,-47.00,223.00
127,500.00,4220.00,-14224.00,29.52,81.00,-327.00,420.00
128,916.00,4108.00,-14636.00,29.57,63.00,-394.00,302.00
129,944.00,4080.00,-14044.00,29.57,-248.00,-239.00,-214.00
130,576.00,3904.00,-14164.00,29.42,-322.00,-321.00,-308.00
131,552.00,4276.00,-14200.00,29.57,-521.00,-258.00,-545.00
132,920.00,3972.00,-14332.00,29.66,-338.00,-166.00,-386.00
133,876.00,3820.00,-14556.00,29.52,-132.00,-104.00,-287.00
134,856.00,3956.00,-14472.00,29.57,-57.00,-40.00,-177.00
135,836.00,3800.00,-14364.00,29.52,-97.00,-216.00,125.00
136,1016.00,3984.00,-14436.00,29.52,-166.00,-47.00,-88.00
137,1072.00,3888.00,-14156.00,29.57,-429.00,-104.00,-238.00
138,728.00,3844.00,-14268.00,29.57,-329.00,-69.00,-246.00
139,768.00,3628.00,-14240.00,29.66,-310.00,-136.00,-158.00
140,880.00,3884.00,-14448.00,29.57,-255.00,-6.00,-228.00
141,960.00,3912.00,-14156.00,29.57,-385.00,-162.00,-148.00
142,856.00,3956.00,-14560.00,29.61,-337.00,-174.00,-248.00
143,912.00,3864.00,-14156.00,29.47,-332.00,-115.00,-189.00
144,856.00,3872.00,-14324.00,29.57,-309.00,-123.00,-62.00
145,1088.00,3912.00,-14324.00,29.66,-425.00,-74.00,-220.00
146,888.00,3812.00,-14396.00,29.42,-405.00,-173.00,-188.00
147,924.00,3936.00,-14336.00,29.57,-155.00,-116.00,-129.00
148,1020.00,3860.00,-14236.00,29.47,-308.00,-110.00,-169.00
149,948.00,3732.00,-14168.00,29.47,-362.00,-144.00,-256.00
150,960.00,3844.00,-14212.00,29.61,-277.00,-188.00,-48.00
151,996.00,3824.00,-14392.00,29.57,-353.00,-159.00,-129.00
152,1072.00,3980.00,-14388.00,29.52,-356.00,-166.00,-114.00
153,1004.00,3896.00,-14356.00,29.61,-289.00,-132.00,-180.00
154,896.00,3856.00,-14412.00,29.52,-241.00,-128.00,-165.00
155,980.00,3760.00,-14280.00,29.47,-284.00,-188.00,-137.00
156,1072.00,3800.00,-14304.00,29.52,-333.00,-173.00,-150.00
157,976.00,3804.00,-14424.00,29.61,-302.00,-128.00,-193.00
158,1036.00,3740.00,-14480.00,29.66,-366.00,-161.00,-170.00
159,1020.00,3824.00,-14320.00,29.47,-332.00,-146.00,-175.00
160,1112.00,3844.00,-14424.00,29.52,-342.00,-122.00,-204.00
161,1000.00,3688.00,-14268.00,29.57,-356.00,-188.00,-213.00
162,952.00,3800.00,-14516.00,29.57,-366.00,-178.00,-200.00
163,1112.00,3668.00,-14292.00,29.57,-375.00,-189.00,-139.00
164,1204.00,3856.00,-14232.00,29.52,-267.00,-147.00,-163.00
165,1064.00,3876.00,-14200.00,29.52,-326.00,-185.00,-196.00
166,1084.00,3748.00,-14332.00,29.52,-397.00,-197.00,-194.00
167,972.00,3756.00,-14416.00,29.47,-332.00,-189.00,-155.00
168,1052.00,3912.00,-14352.00,29.52,-369.00,-130.00,-176.00
169,992.00,3728.00,-14392.00,29.52,-281.00,-159.00,-158.00
170,988.00,3888.00,-14208.00,29.57,-375.00,-195.00,-194.00
171,948.00,3808.00,-14348.00,29.52,-382.00,-152.00,-178.00
172,1060.00,3888.00,-14416.00,29.52,-332.00,-154.00,-208.00
173,1060.00,3800.00,-14308.00,29.57,-338.00,-165.00,-181.00
174,964.00,3884.00,-14288.00,29.47,-450.00,-168.00,-165.00
175,1088.00,3916.00,-14520.00,29.52,-324.00,-148.00,-192.00
176,996.00,3840.00,-14240.00,29.52,-303.00,-170.00,-151.00
177,1064.00,3764.00,-14332.00,29.57,-361.00,-149.00,-180.00
178,1084.00,3816.00,-14292.00,29.57,-326.00,-153.00,-198.00
179,1064.00,3896.00,-14276.00,29.47,-313.00,-167.00,-170.00
180,888.00,3824.00,-14472.00,29.61,-369.00,-169.00,-200.00
181,1148.00,3720.00,-14380.00,29.52,-381.00,-173.00,-145.00
182,1104.00,3840.00,-14392.00,29.57,-371.00,-147.00,-148.00
183,920.00,3780.00,-14612.00,29.57,-282.00,-163.00,-210.00
184,1160.00,3796.00,-14260.00,29.61,-337.00,-158.00,-170.00
185,1040.00,3824.00,-14404.00,29.52,-370.00,-151.00,-222.00
186,1108.00,3868.00,-14276.00,29.57,-368.00,-198.00,-185.00
187,1052.00,3844.00,-14468.00,29.57,-424.00,-167.00,-201.00
188,1064.00,3844.00,-14236.00,29.47,-300.00,-184.00,-201.00
189,912.00,3864.00,-14508.00,29.52,-369.00,-183.00,-155.00
190,1028.00,3872.00,-14228.00,29.42,-406.00,-180.00,-144.00
191,1072.00,3944.00,-14324.00,29.47,-323.00,-148.00,-182.00
192,1156.00,3784.00,-14320.00,29.57,-375.00,-169.00,-180.00
193,952.00,3820.00,-14552.00,29.47,-316.00,-195.00,-179.00
194,1108.00,3864.00,-14248.00,29.52,-301.00,-185.00,-137.00
195,996.00,3776.00,-14396.00,29.47,-381.00,-186.00,-172.00
196,1116.00,3884.00,-14456.00,29.47,-289.00,-178.00,-171.00
197,1112.00,3820.00,-14364.00,29.42,-366.00,-159.00,-167.00
198,1060.00,3772.00,-14420.00,29.42,-348.00,-183.00,-208.00
199,1088.00,3956.00,-14408.00,29.52,-326.00,-205.00,-126.00
200,1036.00,3796.00,-14452.00,29.38,-370.00,-185.00,-139.00
201,1128.00,3784.00,-14352.00,29.57,-308.00,-168.00,-168.00
202,956.00,3856.00,-14384.00,29.47,-276.00,-203.00,-119.00
203,1056.00,3780.00,-14360.00,29.61,-328.00,-175.00,-119.00
204,996.00,3800.00,-14280.00,29.47,-320.00,-212.00,-130.00
205,1128.00,3864.00,-14364.00,29.42,-289.00,-189.00,-159.00
206,1024.00,3820.00,-14356.00,29.52,-399.00,-168.00,-179.00
207,1028.00,3700.00,-14296.00,29.52,-282.00,-209.00,-108.00
208,1048.00,3884.00,-14236.00,29.57,-326.00,-180.00,-117.00
209,1056.00,3792.00,-14468.00,29.47,-390.00,-188.00,-149.00
210,980.00,3856.00,-14272.00,29.52,-279.00,-186.00,-150.00
211,1064.00,3804.00,-14324.00,29.47,-299.00,-172.00,-160.00
212,1000.00,3832.00,-14432.00,29.38,-364.00,-168.00,-168.00
213,1132.00,3784.00,-14388.00,29.52,-412.00,-206.00,-135.00
214,1044.00,3724.00,-14392.00,29.52,-350.00,-210.00,-184.00
215,1064.00,3876.00,-14440.00,29.47,-345.00,-197.00,-186.00
216,1064.00,3832.00,-14396.00,29.57,-389.00,-197.00,-121.00
217,1172.00,3836.00,-14348.00,29.47,-397.00,-199.00,-151.00
218,1088.00,3884.00,-14444.00,29.42,-382.00,-197.00,-148.00
219,1096.00,3904.00,-14576.00,29.52,-309.00,-182.00,-190.00
220,1096.00,3752.00,-14412.00,29.47,-359.00,-171.00,-126.00
221,1048.00,3824.00,-14376.00,29.47,-361.00,-137.00,-169.00
222,1032.00,3904.00,-14240.00,29.38,-284.00,-151.00,-193.00
223,1052.00,3832.00,-14380.00,29.47,-364.00,-170.00,-139.00
224,1000.00,3756.00,-14472.00,29.52,-293.00,-150.00,-203.00
225,1104.00,3804.00,-14372.00,29.52,-257.00,-156.00,-136.00
226,1104.00,3760.00,-14340.00,29.42,-383.00,-161.00,-112.00
227,1172.00,3792.00,-14364.00,29.47,-311.00,-173.00,-165.00
228,1000.00,3828.00,-14560.00,29.47,-361.00,-171.00,-189.00
229,1040.00,3856.00,-14480.00,29.47,-390.00,-173.00,-146.00
230,1148.00,3900.00,-14476.00,29.52,-258.00,-149.00,-213.00
231,1068.00,3884.00,-14232.00,29.47,-313.00,-171.00,-185.00
232,944.00,3736.00,-14504.00,29.47,-392.00,-181.00,-168.00
233,1064.00,3784.00,-14400.00,29.57,-407.00,-148.00,-154.00
234,1072.00,3828.00,-14376.00,29.52,-312.00,-159.00,-78.00
235,1104.00,3828.00,-14312.00,29.47,-359.00,-170.00,-169.00
236,1128.00,3784.00,-14464.00,29.47,-358.00,-175.00,-183.00
237,1076.00,3864.00,-14432.00,29.42,-357.00,-174.00,-180.00
238,1204.00,3844.00,-14440.00,29.42,-328.00,-188.00,-153.00
239,1180.00,3908.00,-14324.00,29.47,-300.00,-168.00,-178.00
240,1084.00,3716.00,-14280.00,29.47,-344.00,-187.00,-175.00
241,1056.00,3708.00,-14392.00,29.47,-354.00,-220.00,-137.00
242,1148.00,3812.00,-14372.00,29.52,-341.00,-233.00,-130.00
243,1012.00,3868.00,-14448.00,29.52,-331.00,-186.00,-169.00
244,1116.00,3780.00,-14380.00,29.47,-334.00,-182.00,-218.00
245,1032.00,3800.00,-14472.00,29.47,-305.00,-195.00,-131.00
246,1020.00,3800.00,-14432.00,29.52,-365.00,-193.00,-142.00
247,1128.00,3772.00,-14148.00,29.42,-341.00,-211.00,-136.00
248,1136.00,3768.00,-14224.00,29.47,-362.00,-185.00,-171.00
249,1172.00,3776.00,-14460.00,29.47,-331.00,-198.00,-125.00
250,1116.00,3756.00,-14504.00,29.42,-328.00,-150.00,-147.00
251,1132.00,3788.00,-14300.00,29.42,-314.00,-179.00,-129.00
252,1216.00,3800.00,-14360.00,29.47,-324.00,-183.00,-145.00
253,1028.00,3732.00,-14408.00,29.47,-381.00,-193.00,-140.00
254,1160.00,3772.00,-14536.00,29.42,-358.00,-210.00,-196.00
255,1100.00,3716.00,-14404.00,29.52,-345.00,-188.00,-125.00
256,1164.00,3840.00,-14424.00,29.47,-335.00,-176.00,-174.00
257,1024.00,3832.00,-14404.00,29.47,-369.00,-173.00,-171.00
258,1168.00,3832.00,-14220.00,29.42,-299.00,-207.00,-210.00
259,1084.00,3612.00,-14352.00,29.42,-439.00,-206.00,-134.00
260,1056.00,3836.00,-14532.00,29.38,-317.00,-209.00,-114.00
261,1180.00,3832.00,-14380.00,29.47,-358.00,-168.00,-180.00
262,1116.00,3744.00,-14300.00,29.42,-322.00,-192.00,-148.00
263,1072.00,3844.00,-14504.00,29.47,-304.00,-178.00,-177.00
264,1084.00,3716.00,-14384.00,29.47,-392.00,-170.00,-175.00
265,1072.00,3784.00,-14336.00,29.38,-281.00,-183.00,-130.00
266,1120.00,3852.00,-14400.00,29.42,-339.00,-172.00,-189.00
267,1088.00,3772.00,-14308.00,29.42,-312.00,-151.00,-133.00
268,1140.00,3776.00,-14232.00,29.38,-293.00,-177.00,-121.00
269,1032.00,3776.00,-14500.00,29.47,-300.00,-155.00,-160.00
270,1152.00,3700.00,-14376.00,29.47,-359.00,-153.00,-124.00
271,1220.00,3784.00,-14420.00,29.52,-334.00,-150.00,-150.00
272,1064.00,3832.00,-14580.00,29.38,-325.00,-163.00,-224.00
273,1116.00,3760.00,-14424.00,29.38,-326.00,-146.00,-214.00
274,1172.00,3688.00,-14300.00,29.47,-399.00,-214.00,-175.00
275,1160.00,3800.00,-14524.00,29.42,-347.00,-194.00,-172.00
276,1092.00,3956.00,-14328.00,29.42,-306.00,-184.00,-129.00
277,1180.00,3828.00,-14444.00,29.47,-346.00,-205.00,-173.00
278,1108.00,3784.00,-14500.00,29.47,-333.00,-190.00,-155.00
279,1124.00,3648.00,-14444.00,29.42,-363.00,-203.00,-172.00
280,1096.00,3732.00,-14420.00,29.47,-344.00,-220.00,-112.00
281,1160.00,3788.00,-14432.00,29.47,-317.00,-179.00,-167.00
282,1096.00,3768.00,-14256.00,29.38,-327.00,-155.00,-120.00
283,1128.00,3784.00,-14420.00,29.47,-331.00,-203.00,-165.00
284,1100.00,3796.00,-14492.00,29.52,-323.00,-203.00,-148.00
285,1152.00,3800.00,-14392.00,29.52,-346.00,-201.00,-116.00
286,1136.00,3840.00,-14340.00,29.47,-287.00,-211.00,-126.00
287,1132.00,3688.00,-14392.00,29.47,-338.00,-203.00,-137.00
288,1064.00,3768.00,-14424.00,29.42,-335.00,-182.00,-130.00
289,1144.00,3684.00,-14304.00,29.52,-313.00,-200.00,-112.00
290,1128.00,3676.00,-14428.00,29.47,-342.00,-192.00,-157.00
291,1068.00,3812.00,-14400.00,29.47,-364.00,-190.00,-149.00
292,1160.00,3732.00,-14240.00,29.52,-312.00,-174.00,-171.00
293,1228.00,3664.00,-14368.00,29.52,-357.00,-193.00,-155.00
294,1096.00,3792.00,-14412.00,29.47,-362.00,-192.00,-165.00
295,1200.00,3728.00,-14456.00,29.42,-326.00,-206.00,-165.00
296,1200.00,3792.00,-14376.00,29.42,-399.00,-202.00,-129.00
297,1188.00,3748.00,-14260.00,29.47,-378.00,-160.00,-152.00
298,1152.00,3656.00,-14368.00,29.47,-357.00,-214.00,-127.00
299,1144.00,3820.00,-14532.00,29.42,-306.00,-187.00,-190.00
300,1108.00,3804.00,-14436.00,29.42,-381.00,-196.00,-137.00
301,1076.00,3700.00,-14424.00,29.47,-400.00,-226.00,-138.00
302,1116.00,3844.00,-14572.00,29.42,-280.00,-173.00,-210.00
303,1132.00,3768.00,-14384.00,29.42,-351.00,-154.00,-254.00
304,1116.00,3640.00,-14340.00,29.38,-351.00,-170.00,-157.00
305,1188.00,3860.00,-14392.00,29.38,-308.00,-194.00,-128.00
306,1116.00,3820.00,-14356.00,29.42,-398.00,-169.00,-188.00
307,1152.00,3828.00,-14484.00,29.42,-317.00,-159.00,-190.00
308,1128.00,3700.00,-14336.00,29.38,-347.00,-164.00,-173.00
309,1160.00,3756.00,-14308.00,29.47,-350.00,-148.00,-180.00
310,1128.00,3744.00,-14292.00,29.33,-380.00,-175.00,-147.00
311,1036.00,3828.00,-14396.00,29.38,-373.00,-165.00,-166.00
312,1168.00,3648.00,-14424.00,29.38,-393.00,-171.00,-166.00
313,1220.00,3768.00,-14416.00,29.42,-339.00,-181.00,-190.00
314,1056.00,3920.00,-14412.00,29.52,-363.00,-162.00,-190.00
315,1088.00,3744.00,-14412.00,29.47,-381.00,-194.00,-149.00
316,1276.00,3756.00,-14404.00,29.52,-313.00,-214.00,-132.00
317,1256.00,3788.00,-14284.00,29.42,-319.00,-163.00,-207.00
318,1140.00,3868.00,-14396.00,29.47,-331.00,-195.00,-179.00
319,1116.00,3844.00,-14408.00,29.47,-388.00,-191.00,-166.00
320,1240.00,3828.00,-14312.00,29.42,-341.00,-175.00,-148.00
321,1160.00,3848.00,-14424.00,29.42,-337.00,-172.00,-168.00
322,1128.00,3724.00,-14404.00,29.47,-307.00,-192.00,-133.00
323,1128.00,3672.00,-14484.00,29.38,-325.00,-183.00,-132.00
324,1080.00,3784.00,-14372.00,29.38,-342.00,-211.00,-154.00
325,1120.00,3840.00,-14528.00,29.52,-354.00,-178.00,-173.00
326,1088.00,3680.00,-14352.00,29.38,-303.00,-175.00,-110.00
327,1204.00,3648.00,-14400.00,29.38,-328.00,-215.00,-128.00
328,1200.00,3832.00,-14504.00,29.42,-285.00,-185.00,-189.00
329,1184.00,3756.00,-14432.00,29.33,-345.00,-192.00,-126.00
330,1176.00,3692.00,-14376.00,29.47,-363.00,-188.00,-121.00
331,1204.00,3708.00,-14400.00,29.38,-358.00,-182.00,-137.00
332,1052.00,3864.00,-14284.00,29.33,-299.00,-190.00,-187.00
333,1140.00,3756.00,-14532.00,29.42,-367.00,-205.00,-141.00
334,1136.00,3752.00,-14360.00,29.38,-378.00,-191.00,-141.00
335,1240.00,3768.00,-14308.00,29.38,-334.00,-212.00,-126.00
336,1168.00,3848.00,-14472.00,29.42,-345.00,-189.00,-175.00
337,1168.00,3876.00,-14480.00,29.42,-328.00,-177.00,-180.00
338,1040.00,3720.00,-14316.00,29.42,-344.00,-161.00,-187.00
339,1136.00,3664.00,-14448.00,29.47,-395.00,-181.00,-188.00
340,1224.00,3728.00,-14404.00,29.47,-292.00,-198.00,-124.00
341,1168.00,3760.00,-14360.00,29.42,-305.00,-164.00,-152.00
342,1164.00,3700.00,-14368.00,29.52,-421.00,-147.00,-247.00
343,1020.00,3624.00,-14572.00,29.38,-310.00,-180.00,-154.00
344,1160.00,3764.00,-14416.00,29.38,-353.00,-157.00,-167.00
345,1120.00,3800.00,-14440.00,29.38,-334.00,-158.00,-179.00
346,1100.00,3840.00,-14200.00,29.42,-299.00,-160.00,-173.00
347,1064.00,3832.00,-14448.00,29.42,-370.00,-164.00,-212.00
348,1160.00,3656.00,-14388.00,29.38,-400.00,-197.00,-206.00
349,1096.00,3740.00,-14404.00,29.47,-350.00,-176.00,-150.00
350,1152.00,3808.00,-14484.00,29.42,-371.00,-169.00,-154.00
351,1188.00,3808.00,-14300.00,29.33,-365.00,-161.00,-162.00
352,1104.00,3764.00,-14220.00,29.33,-357.00,-174.00,-189.00
353,1108.00,3716.00,-14368.00,29.47,-327.00,-181.00,-187.00
354,1144.00,3764.00,-14416.00,29.47,-362.00,-177.00,-170.00
355,1096.00,3752.00,-14260.00,29.42,-406.00,-172.00,-168.00
356,1096.00,3768.00,-14180.00,29.52,-294.00,-205.00,-170.00
357,1124.00,3668.00,-14308.00,29.38,-334.00,-220.00,-145.00
358,1184.00,3852.00,-14232.00,29.47,-295.00,-182.00,-139.00
359,1232.00,3828.00,-14428.00,29.42,-345.00,-192.00,-131.00
360,1080.00,3676.00,-14300.00,29.47,-302.00,-187.00,-197.00
361,1152.00,3832.00,-14472.00,29.28,-303.00,-213.00,-132.00
362,1100.00,3700.00,-14376.00,29.38,-387.00,-210.00,-133.00
363,1152.00,3828.00,-14456.00,29.33,-311.00,-214.00,-125.00
364,1184.00,3776.00,-14384.00,29.42,-283.00,-215.00,-138.00
365,1100.00,3644.00,-14332.00,29.38,-353.00,-184.00,-178.00
366,1060.00,3768.00,-14308.00,29.38,-331.00,-192.00,-163.00
367,1152.00,3744.00,-14420.00,29.42,-293.00,-167.00,-177.00
368,1072.00,3796.00,-14300.00,29.33,-358.00,-191.00,-158.00
369,1216.00,3708.00,-14444.00,29.47,-317.00,-184.00,-118.00
370,1216.00,3752.00,-14348.00,29.47,-265.00,-198.00,-151.00
371,1236.00,3728.00,-14352.00,29.33,-365.00,-220.00,-92.00
372,1168.00,3700.00,-14476.00,29.42,-347.00,-200.00,-128.00
373,1116.00,3792.00,-14440.00,29.38,-343.00,-166.00,-173.00
374,1156.00,3760.00,-14316.00,29.38,-366.00,-205.00,-186.00
375,1204.00,3728.00,-14512.00,29.38,-381.00,-208.00,-153.00
376,1128.00,3828.00,-14476.00,29.33,-342.00,-203.00,-167.00
377,1180.00,3712.00,-14280.00,29.38,-328.00,-212.00,-120.00
378,1144.00,3652.00,-14284.00,29.47,-371.00,-192.00,-156.00
379,1156.00,3724.00,-14320.00,29.47,-327.00,-179.00,-143.00
380,1208.00,3780.00,-14376.00,29.38,-292.00,-190.00,-159.00
381,1272.00,3740.00,-14336.00,29.33,-319.00,-174.00,-151.00
382,1136.00,3728.00,-14336.00,29.33,-384.00,-181.00,-175.00
383,1120.00,3768.00,-14388.00,29.42,-340.00,-144.00,-161.00
384,1172.00,3648.00,-14396.00,29.47,-359.00,-177.00,-188.00
385,1160.00,3792.00,-14592.00,29.38,-354.00,-159.00,-164.00
386,1084.00,3732.00,-14416.00,29.42,-414.00,-190.00,-157.00
387,1096.00,3708.00,-14448.00,29.33,-350.00,-166.00,-185.00
388,1244.00,3804.00,-14424.00,29.38,-339.00,-159.00,-222.00
389,1196.00,3756.00,-14360.00,29.38,-317.00,-164.00,-245.00
390,1188.00,3816.00,-14336.00,29.42,-396.00,-163.00,-152.00
391,1124.00,3784.00,-14212.00,29.42,-385.00,-205.00,-135.00
392,1152.00,3816.00,-14320.00,29.38,-362.00,-183.00,-131.00
393,1136.00,3744.00,-14308.00,29.47,-352.00,-165.00,-188.00
394,1176.00,3828.00,-14392.00,29.42,-330.00,-185.00,-186.00
395,1164.00,3752.00,-14468.00,29.28,-378.00,-179.00,-169.00
396,1168.00,3684.00,-14424.00,29.38,-366.00,-203.00,-156.00
397,1148.00,3800.00,-14408.00,29.38,-331.00,-197.00,-156.00
398,1156.00,3776.00,-14236.00,29.33,-372.00,-171.00,-188.00
399,1192.00,3712.00,-14576.00,29.33,-321.00,-195.00,-142.00
400,1252.00,3748.00,-14400.00,29.38,-300.00,-203.00,-153.00
401,1156.00,3792.00,-14404.00,29.47,-364.00,-211.00,-169.00
402,1040.00,3752.00,-14316.00,29.42,-302.00,-204.00,-155.00
403,1244.00,3800.00,-14440.00,29.42,-332.00,-199.00,-113.00
404,1172.00,3728.00,-14392.00,29.38,-348.00,-185.00,-152.00
405,1108.00,3692.00,-14364.00,29.47,-306.00,-177.00,-97.00
406,1192.00,3808.00,-14432.00,29.33,-340.00,-156.00,-141.00
407,1104.00,3756.00,-14424.00,29.38,-367.00,-191.00,-148.00
408,1132.00,3732.00,-14352.00,29.38,-357.00,-198.00,-136.00
409,1056.00,3664.00,-14520.00,29.42,-343.00,-197.00,-148.00
410,1044.00,3728.00,-14260.00,29.38,-350.00,-208.00,-151.00
411,1156.00,3672.00,-14436.00,29.38,-334.00,-193.00,-127.00
412,1176.00,3748.00,-14368.00,29.38,-358.00,-199.00,-183.00
413,1084.00,3672.00,-14396.00,29.42,-331.00,-210.00,-108.00
414,1220.00,3736.00,-14352.00,29.42,-349.00,-175.00,-185.00
415,1180.00,3764.00,-14456.00,29.42,-330.00,-171.00,-144.00
416,1084.00,3660.00,-14488.00,29.38,-274.00,-183.00,-181.00
417,1160.00,3680.00,-14428.00,29.38,-356.00,-195.00,-140.00
418,1116.00,3840.00,-14472.00,29.33,-416.00,-209.00,-136.00
419,1152.00,3780.00,-14476.00,29.42,-322.00,-195.00,-112.00
420,1144.00,3716.00,-14516.00,29.38,-318.00,-206.00,-159.00
421,1080.00,3692.00,-14444.00,29.28,-375.00,-192.00,-181.00
422,1160.00,3688.00,-14352.00,29.38,-349.00,-190.00,-188.00
423,1044.00,3756.00,-14388.00,29.42,-298.00,-184.00,-197.00
424,1180.00,3700.00,-14328.00,29.42,-350.00,-158.00,-149.00
425,1212.00,3748.00,-14256.00,29.38,-381.00,-161.00,-148.00
426,1176.00,3748.00,-14268.00,29.28,-355.00,-183.00,-196.00
427,1088.00,3760.00,-14496.00,29.38,-355.00,-193.00,-163.00
428,1064.00,3696.00,-14328.00,29.33,-343.00,-185.00,-148.00
429,1188.00,3788.00,-14404.00,29.42,-341.00,-149.00,-191.00
430,1300.00,3684.00,-14436.00,29.28,-413.00,-188.00,-199.00
431,1164.00,3744.00,-14456.00,29.38,-327.00,-162.00,-187.00
432,1084.00,3744.00,-14376.00,29.38,-408.00,-181.00,-173.00
433,1144.00,3756.00,-14336.00,29.52,-387.00,-169.00,-181.00
434,1056.00,3644.00,-14388.00,29.42,-337.00,-181.00,-149.00
435,1252.00,3760.00,-14376.00,29.47,-350.00,-159.00,-219.00
436,1120.00,3724.00,-14300.00,29.28,-360.00,-198.00,-165.00
437,1112.00,3740.00,-14452.00,29.38,-358.00,-199.00,-159.00
438,1136.00,3804.00,-14372.00,29.33,-356.00,-195.00,-140.00
439,1096.00,3788.00,-14376.00,29.33,-305.00,-161.00,-144.00
440,1236.00,3772.00,-14264.00,29.38,-334.00,-218.00,-179.00
441,1036.00,3672.00,-14348.00,29.47,-390.00,-224.00,-183.00
442,1092.00,3796.00,-14452.00,29.38,-349.00,-190.00,-136.00
443,1268.00,3812.00,-14344.00,29.42,-307.00,-197.00,-166.00
444,1152.00,3652.00,-14280.00,29.42,-339.00,-168.00,-187.00
445,1128.00,3832.00,-14364.00,29.42,-324.00,-193.00,-134.00
446,1184.00,3708.00,-14536.00,29.42,-325.00,-189.00,-127.00
447,1148.00,3816.00,-14464.00,29.38,-344.00,-225.00,-157.00
448,1168.00,3776.00,-14472.00,29.38,-342.00,-201.00,-110.00
449,1228.00,3728.00,-14396.00,29.28,-278.00,-165.00,-149.00
450,1076.00,3616.00,-14476.00,29.47,-340.00,-177.00,-170.00
451,1168.00,3728.00,-14396.00,29.42,-352.00,-195.00,-161.00
452,1140.00,3692.00,-14460.00,29.38,-342.00,-193.00,-139.00
453,1108.00,3696.00,-14440.00,29.28,-332.00,-193.00,-147.00
454,1072.00,3732.00,-14548.00,29.38,-310.00,-187.00,-107.00
455,1224.00,3676.00,-14360.00,29.38,-382.00,-202.00,-209.00
456,1100.00,3700.00,-14304.00,29.33,-364.00,-230.00,-126.00
457,1360.00,3684.00,-14332.00,29.33,-348.00,-189.00,-122.00
458,1180.00,3728.00,-14396.00,29.38,-347.00,-201.00,-165.00
459,1172.00,3768.00,-14516.00,29.38,-354.00,-193.00,-181.00
460,1256.00,3788.00,-14376.00,29.42,-323.00,-202.00,-169.00
461,1128.00,3712.00,-14280.00,29.42,-375.00,-201.00,-166.00
462,1240.00,3732.00,-14396.00,29.33,-300.00,-191.00,-174.00
463,1080.00,3696.00,-14372.00,29.28,-343.00,-179.00,-180.00
464,1156.00,3716.00,-14316.00,29.38,-289.00,-178.00,-211.00
465,1152.00,3824.00,-14392.00,29.33,-329.00,-193.00,-120.00
466,1224.00,3708.00,-14420.00,29.33,-375.00,-156.00,-190.00
467,1180.00,3804.00,-14388.00,29.42,-322.00,-175.00,-159.00
468,1084.00,3660.00,-14524.00,29.38,-377.00,-155.00,-164.00
469,1192.00,3732.00,-14512.00,29.47,-341.00,-180.00,-187.00
470,1332.00,3764.00,-14276.00,29.28,-309.00,-177.00,-236.00
471,1204.00,3696.00,-14364.00,29.24,-411.00,-187.00,-137.00
472,1124.00,3648.00,-14484.00,29.38,-328.00,-177.00,-192.00
473,1172.00,3928.00,-14416.00,29.38,-354.00,-148.00,-197.00
474,1168.00,3724.00,-14400.00,29.38,-342.00,-167.00,-198.00
475,1132.00,3856.00,-14364.00,29.38,-393.00,-174.00,-162.00
476,1212.00,3676.00,-14244.00,29.42,-408.00,-166.00,-186.00
477,1244.00,3756.00,-14328.00,29.33,-369.00,-191.00,-150.00
478,1260.00,3664.00,-14396.00,29.33,-336.00,-182.00,-184.00
479,1172.00,3716.00,-14440.00,29.38,-325.00,-197.00,-186.00
480,1220.00,3724.00,-14316.00,29.38,-315.00,-182.00,-132.00
481,1288.00,3832.00,-14468.00,29.42,-382.00,-174.00,-187.00
482,1180.00,3708.00,-14524.00,29.33,-325.00,-188.00,-116.00
483,1104.00,3648.00,-14312.00,29.38,-254.00,-212.00,-183.00
484,1204.00,3836.00,-14412.00,29.38,-378.00,-193.00,-166.00
485,1032.00,3572.00,-14436.00,29.38,-308.00,-233.00,-96.00
486,1220.00,3724.00,-14420.00,29.33,-329.00,-198.00,-149.00
487,1240.00,3768.00,-14312.00,29.33,-379.00,-213.00,-158.00
488,1196.00,3648.00,-14452.00,29.38,-363.00,-173.00,-193.00
489,1228.00,3700.00,-14424.00,29.38,-294.00,-211.00,-103.00
490,1104.00,3812.00,-14456.00,29.33,-354.00,-194.00,-145.00
491,1176.00,3724.00,-14344.00,29.33,-345.00,-212.00,-109.00
492,1184.00,3692.00,-14356.00,29.38,-320.00,-213.00,-160.00
493,1172.00,3708.00,-14352.00,29.38,-314.00,-198.00,-177.00
494,1108.00,3732.00,-14420.00,29.38,-338.00,-189.00,-140.00
495,1212.00,3716.00,-14496.00,29.33,-356.00,-205.00,-169.00
496,1144.00,3732.00,-14232.00,29.33,-331.00,-207.00,-172.00
497,1232.00,3724.00,-14352.00,29.28,-333.00,-188.00,-114.00
498,1188.00,3828.00,-14452.00,29.38,-356.00,-209.00,-174.00
499,1148.00,3700.00,-14572.00,29.47,-377.00,-225.00,-110.00
500,1244.00,3784.00,-14348.00,29.42,-328.00,-187.00,-131.00
501,1180.00,3688.00,-14236.00,29.42,-336.00,-173.00,-166.00
502,1172.00,3676.00,-14420.00,29.38,-389.00,-175.00,-182.00
503,1172.00,3748.00,-14348.00,29.38,-295.00,-164.00,-185.00
504,1204.00,3676.00,-14348.00,29.33,-319.00,-157.00,-166.00
505,1064.00,3692.00,-14404.00,29.33,-358.00,-172.00,-177.00
506,1160.00,3612.00,-14288.00,29.33,-323.00,-174.00,-193.00
507,1208.00,3824.00,-14368.00,29.28,-300.00,-143.00,-164.00
508,1268.00,3688.00,-14292.00,29.28,-384.00,-188.00,-162.00
509,1168.00,3680.00,-14360.00,29.38,-376.00,-183.00,-197.00
510,1260.00,3748.00,-14396.00,29.33,-330.00,-146.00,-165.00
511,1236.00,3724.00,-14444.00,29.33,-384.00,-188.00,-193.00
512,1164.00,3776.00,-14568.00,29.47,-421.00,-157.00,-181.00
513,1216.00,3676.00,-14212.00,29.38,-347.00,-166.00,-162.00
514,1240.00,3800.00,-14444.00,29.38,-360.00,-200.00,-182.00
515,1192.00,3808.00,-14464.00,29.47,-380.00,-152.00,-222.00
516,1156.00,3724.00,-14428.00,29.38,-300.00,-180.00,-196.00
517,1264.00,3692.00,-14348.00,29.42,-332.00,-189.00,-105.00
518,1144.00,3624.00,-14412.00,29.42,-378.00,-205.00,-135.00
519,1336.00,3824.00,-14324.00,29.42,-373.00,-207.00,-159.00
520,1180.00,3760.00,-14468.00,29.33,-322.00,-177.00,-191.00
521,1204.00,3756.00,-14448.00,29.38,-328.00,-209.00,-150.00
522,1160.00,3704.00,-14608.00,29.38,-358.00,-180.00,-136.00
523,1208.00,3692.00,-14444.00,29.38,-347.00,-194.00,-136.00
524,1252.00,3740.00,-14216.00,29.38,-339.00,-232.00,-171.00
525,1104.00,3636.00,-14392.00,29.33,-383.00,-219.00,-161.00
526,1156.00,3700.00,-14372.00,29.42,-356.00,-202.00,-179.00
527,1220.00,3836.00,-14440.00,29.38,-325.00,-214.00,-167.00
528,1116.00,3664.00,-14480.00,29.28,-310.00,-217.00,-190.00
529,1160.00,3720.00,-14412.00,29.33,-341.00,-240.00,-134.00
530,1080.00,3680.00,-14424.00,29.33,-371.00,-209.00,-117.00
531,1180.00,3804.00,-14460.00,29.33,-379.00,-175.00,-151.00
532,1140.00,3716.00,-14464.00,29.28,-239.00,-160.00,-140.00
533,1168.00,3724.00,-14424.00,29.47,-240.00,-206.00,-124.00
534,1220.00,3848.00,-14412.00,29.42,-367.00,-206.00,-87.00
535,1184.00,3664.00,-14432.00,29.38,-361.00,-157.00,-158.00
536,1244.00,3708.00,-14452.00,29.28,-369.00,-220.00,-149.00
537,1148.00,3712.00,-14392.00,29.38,-303.00,-206.00,-99.00
538,1196.00,3652.00,-14408.00,29.33,-376.00,-204.00,-106.00
539,1156.00,3684.00,-14340.00,29.28,-352.00,-198.00,-131.00
540,1204.00,3748.00,-14396.00,29.33,-365.00,-152.00,-223.00
541,1176.00,3724.00,-14308.00,29.33,-358.00,-194.00,-187.00
542,1144.00,3676.00,-14404.00,29.38,-344.00,-166.00,-164.00
543,1224.00,3748.00,-14348.00,29.38,-326.00,-162.00,-170.00
544,1096.00,3676.00,-14296.00,29.42,-350.00,-186.00,-143.00
545,1196.00,3764.00,-14428.00,29.42,-341.00,-169.00,-166.00
546,1232.00,3760.00,-14404.00,29.38,-333.00,-166.00,-198.00
547,1252.00,3668.00,-14424.00,29.38,-342.00,-170.00,-178.00
548,1276.00,3616.00,-14228.00,29.33,-370.00,-147.00,-182.00
549,1220.00,3652.00,-14344.00,29.38,-367.00,-180.00,-207.00
550,1168.00,3624.00,-14696.00,29.38,-348.00,-195.00,-181.00
551,1204.00,3852.00,-14492.00,29.38,-374.00,-143.00,-177.00
552,1316.00,3716.00,-14488.00,29.33,-369.00,-144.00,-245.00
553,1036.00,3628.00,-14328.00,29.33,-318.00,-144.00,-248.00
554,1168.00,3820.00,-14364.00,29.38,-365.00,-167.00,-177.00
555,1148.00,3660.00,-14344.00,29.47,-358.00,-168.00,-141.00
556,1168.00,3644.00,-14336.00,29.33,-352.00,-152.00,-193.00
557,1200.00,3728.00,-14288.00,29.42,-366.00,-191.00,-196.00
558,1176.00,3732.00,-14360.00,29.38,-285.00,-157.00,-186.00
559,1204.00,3692.00,-14304.00,29.47,-323.00,-156.00,-172.00
560,1276.00,3696.00,-14324.00,29.33,-374.00,-204.00,-150.00
561,1248.00,3760.00,-14248.00,29.33,-375.00,-216.00,-167.00
562,1092.00,3692.00,-14444.00,29.28,-371.00,-204.00,-159.00
563,1244.00,3676.00,-14464.00,29.38,-306.00,-191.00,-159.00
564,1184.00,3824.00,-14416.00,29.33,-333.00,-220.00,-164.00
565,1184.00,3792.00,-14268.00,29.38,-326.00,-230.00,-168.00
566,1284.00,3744.00,-14592.00,29.38,-272.00,-231.00,-111.00
567,1176.00,3732.00,-14312.00,29.38,-282.00,-187.00,-179.00
568,1264.00,3756.00,-14456.00,29.42,-418.00,-206.00,-169.00
569,1216.00,3692.00,-14404.00,29.33,-309.00,-215.00,-139.00
570,1256.00,3652.00,-14344.00,29.38,-328.00,-178.00,-173.00
571,1168.00,3704.00,-14480.00,29.42,-377.00,-188.00,-178.00
572,1116.00,3688.00,-14528.00,29.42,-317.00,-200.00,-151.00
573,1172.00,3680.00,-14252.00,29.28,-329.00,-184.00,-163.00
574,1168.00,3736.00,-14544.00,29.28,-366.00,-218.00,-99.00
575,1288.00,3624.00,-14372.00,29.33,-331.00,-194.00,-150.00
576,1116.00,3776.00,-14280.00,29.38,-354.00,-183.00,-178.00
577,1140.00,3736.00,-14288.00,29.38,-346.00,-177.00,-204.00
578,1196.00,3708.00,-14536.00,29.33,-345.00,-198.00,-138.00
579,1196.00,3592.00,-14220.00,29.42,-366.00,-198.00,-146.00
580,1272.00,3688.00,-14436.00,29.28,-353.00,-203.00,-141.00
581,1268.00,3744.00,-14372.00,29.28,-402.00,-178.00,-181.00
582,1216.00,3696.00,-14440.00,29.33,-282.00,-166.00,-142.00
583,1208.00,3664.00,-14244.00,29.33,-302.00,-162.00,-206.00
584,1212.00,3724.00,-14452.00,29.42,-364.00,-185.00,-162.00
585,1208.00,3692.00,-14480.00,29.28,-378.00,-149.00,-160.00
586,1316.00,3704.00,-14436.00,29.33,-309.00,-187.00,-175.00
587,1228.00,3776.00,-14416.00,29.33,-331.00,-179.00,-194.00
588,1188.00,3692.00,-14440.00,29.28,-383.00,-155.00,-132.00
589,1320.00,3744.00,-14376.00,29.38,-313.00,-152.00,-182.00
590,1304.00,3728.00,-14424.00,29.28,-374.00,-149.00,-202.00
591,1180.00,3720.00,-14396.00,29.33,-353.00,-166.00,-209.00
592,1200.00,3768.00,-14300.00,29.33,-352.00,-158.00,-166.00
593,1180.00,3756.00,-14360.00,29.47,-367.00,-152.00,-182.00
594,1284.00,3784.00,-14436.00,29.38,-387.00,-185.00,-164.00
595,1348.00,3756.00,-14368.00,29.33,-297.00,-151.00,-196.00
596,1200.00,3712.00,-14568.00,29.38,-319.00,-144.00,-182.00
597,1208.00,3732.00,-14592.00,29.38,-383.00,-184.00,-160.00
598,1152.00,3736.00,-14504.00,29.47,-332.00,-189.00,-156.00
599,1212.00,3796.00,-14456.00,29.38,-312.00,-152.00,-154.00
600,1348.00,3824.00,-14528.00,29.42,-367.00,-203.00,-176.00
601,1212.00,3884.00,-14376.00,29.33,-317.00,-172.00,-187.00
602,1180.00,3632.00,-14280.00,29.38,-373.00,-209.00,-141.00
603,1324.00,3832.00,-14336.00,29.38,-343.00,-240.00,-133.00
604,1284.00,3724.00,-14556.00,29.42,-351.00,-204.00,-168.00
605,1220.00,3680.00,-14268.00,29.33,-260.00,-181.00,-149.00
606,1212.00,3720.00,-14376.00,29.42,-382.00,-189.00,-108.00
607,1288.00,3732.00,-14480.00,29.38,-366.00,-214.00,-120.00
608,1216.00,3808.00,-14324.00,29.38,-294.00,-193.00,-146.00
609,1232.00,3664.00,-14380.00,29.33,-339.00,-187.00,-144.00
610,1248.00,3636.00,-14496.00,29.42,-355.00,-207.00,-152.00
611,1220.00,3704.00,-14276.00,29.28,-317.00,-214.00,-98.00
612,1276.00,3704.00,-14460.00,29.42,-379.00,-191.00,-149.00
613,1308.00,3720.00,-14440.00,29.38,-417.00,-173.00,-142.00
614,1252.00,3724.00,-14504.00,29.38,-283.00,-179.00,-173.00
615,1196.00,3728.00,-14344.00,29.28,-319.00,-191.00,-202.00
616,1196.00,3616.00,-14468.00,29.33,-429.00,-215.00,-134.00
617,1208.00,3720.00,-14372.00,29.28,-314.00,-202.00,-142.00
618,1256.00,3836.00,-14428.00,29.38,-313.00,-179.00,-206.00
619,1220.00,3688.00,-14504.00,29.33,-371.00,-187.00,-166.00
620,1168.00,3672.00,-14524.00,29.33,-340.00,-211.00,-116.00
621,1248.00,3672.00,-14352.00,29.38,-351.00,-213.00,-146.00
622,1300.00,3912.00,-14312.00,29.38,-274.00,-171.00,-105.00
623,1636.00,4344.00,-15024.00,29.38,-902.00,-98.00,-278.00
624,2168.00,4308.00,-14904.00,29.24,-258.00,351.00,46.00
625,2724.00,4548.00,-14556.00,29.33,-392.00,930.00,-2722.00
626,2708.00,5012.00,-16248.00,29.38,1198.00,126.00,-4620.00
627,1684.00,3672.00,-15156.00,29.38,419.00,681.00,-5090.00
628,420.00,1936.00,-13896.00,29.42,-126.00,-784.00,-4289.00
629,436.00,2692.00,-15404.00,29.33,-738.00,-1279.00,-2335.00
630,628.00,3428.00,-14460.00,29.38,-1704.00,-881.00,-1096.00
631,1256.00,4244.00,-14672.00,29.28,-3217.00,475.00,-1654.00
632,1248.00,5004.00,-15016.00,29.38,-6367.00,397.00,-4550.00
633,956.00,5852.00,-15416.00,29.38,-8090.00,-609.00,-6038.00
634,-196.00,5048.00,-13892.00,29.38,-7639.00,-2377.00,-8129.00
635,-1656.00,4224.00,-12884.00,29.33,-6179.00,-5145.00,-8040.00
636,-2748.00,6500.00,-10984.00,29.47,-1131.00,-5836.00,-6671.00
637,-3020.00,6092.00,-10816.00,29.42,3487.00,-3820.00,-3537.00
638,-3316.00,7756.00,-11808.00,29.38,1108.00,-3199.00,-3047.00
639,-3984.00,6036.00,-10872.00,29.38,738.00,-2078.00,-1973.00
640,-4948.00,6032.00,-12360.00,29.33,1826.00,-3401.00,-2623.00
641,-5744.00,4092.00,-12552.00,29.33,6914.00,-2855.00,-2440.00
642,-6172.00,2660.00,-14524.00,29.38,6145.00,-5302.00,596.00
643,-6960.00,1024.00,-11396.00,29.28,9267.00,-2095.00,3941.00
644,-5348.00,3132.00,-14180.00,29.28,5886.00,3193.00,4612.00
645,-5084.00,5432.00,-13892.00,29.38,3732.00,3300.00,3314.00
646,-3852.00,4616.00,-13316.00,29.38,388.00,1982.00,1286.00
647,-3756.00,3600.00,-14100.00,29.38,-970.00,-11.00,732.00
648,-4152.00,3204.00,-12640.00,29.33,-2261.00,-149.00,740.00
649,-3924.00,3380.00,-14192.00,29.42,-1637.00,226.00,1552.00
650,-4072.00,2788.00,-13048.00,29.33,-1688.00,610.00,1415.00
651,-3908.00,3528.00,-13872.00,29.42,-2738.00,220.00,1077.00
652,-4328.00,5904.00,-15336.00,29.42,712.00,-2218.00,502.00
653,-4604.00,3916.00,-13920.00,29.28,-694.00,-1897.00,974.00
654,-4532.00,3064.00,-13620.00,29.28,1309.00,-1318.00,1359.00
655,-4268.00,3108.00,-13260.00,29.38,2646.00,-1233.00,1432.00
656,-4388.00,3072.00,-13620.00,29.42,2556.00,-1295.00,997.00
657,-4844.00,2628.00,-13396.00,29.42,2936.00,-2531.00,491.00
658,-5648.00,2452.00,-14280.00,29.47,1885.00,-2979.00,-101.00
659,-5328.00,2300.00,-14256.00,29.42,5.00,243.00,-153.00
660,-5480.00,2264.00,-13484.00,29.42,-800.00,519.00,52.00
661,-5300.00,2332.00,-13528.00,29.38,-563.00,544.00,201.00
662,-5244.00,2740.00,-13364.00,29.33,-749.00,-15.00,946.00
663,-5020.00,2636.00,-13688.00,29.47,-722.00,-374.00,881.00
664,-5644.00,2432.00,-13152.00,29.38,21.00,-1107.00,689.00
665,-4984.00,3200.00,-13864.00,29.33,619.00,-1549.00,949.00
666,-5248.00,2692.00,-13032.00,29.38,-355.00,-1126.00,338.00
667,-5528.00,2692.00,-13024.00,29.38,-504.00,-958.00,-178.00
668,-5616.00,2648.00,-13436.00,29.38,806.00,-2031.00,-1130.00
669,-6020.00,2236.00,-13680.00,29.28,-271.00,-1113.00,-1395.00
670,-6468.00,2348.00,-13392.00,29.42,-596.00,-1032.00,-587.00
671,-6172.00,2416.00,-13256.00,29.38,-1608.00,-1033.00,-457.00
672,-6096.00,2588.00,-13116.00,29.28,-1334.00,-1023.00,-859.00
673,-6360.00,2644.00,-13008.00,29.33,-1184.00,-867.00,-1424.00
674,-6584.00,2724.00,-13096.00,29.28,-1057.00,-744.00,-1383.00
675,-6600.00,2532.00,-13096.00,29.38,-1104.00,-77.00,-1567.00
676,-6628.00,2704.00,-12952.00,29.28,-1115.00,-131.00,-1568.00
677,-6772.00,2508.00,-12968.00,29.28,-1038.00,-68.00,-1591.00
678,-6760.00,2748.00,-12928.00,29.38,-1218.00,54.00,-1355.00
679,-6604.00,2668.00,-12768.00,29.28,-1059.00,170.00,-1333.00
680,-6516.00,2876.00,-13000.00,29.38,-1303.00,444.00,-1131.00
681,-6536.00,2704.00,-12828.00,29.33,-683.00,529.00,-970.00
682,-5496.00,364.00,-13684.00,29.38,-1229.00,-145.00,-646.00
683,-6508.00,2812.00,-12924.00,29.28,-728.00,287.00,-556.00
684,-6420.00,2760.00,-13028.00,29.38,-986.00,387.00,-458.00
685,-6284.00,2848.00,-12980.00,29.24,-1160.00,707.00,-203.00
686,-5912.00,2960.00,-13120.00,29.33,-822.00,871.00,-282.00
687,-5964.00,3128.00,-13284.00,29.28,-1029.00,1137.00,-144.00
688,-6552.00,3292.00,-13220.00,29.33,-610.00,1707.00,-19.00
689,-5592.00,3316.00,-13300.00,29.38,-1079.00,2062.00,275.00
690,-5288.00,3368.00,-13408.00,29.47,-1810.00,2047.00,835.00
691,-4912.00,3636.00,-13408.00,29.38,-999.00,1943.00,856.00
692,-4716.00,3724.00,-13544.00,29.28,-295.00,1806.00,855.00
693,-4420.00,3764.00,-13776.00,29.38,-787.00,1298.00,1330.00
694,-4108.00,3812.00,-13752.00,29.38,-411.00,1076.00,1309.00
695,-3896.00,4052.00,-13684.00,29.33,-200.00,715.00,1109.00
696,-3684.00,3896.00,-13860.00,29.42,-495.00,849.00,1193.00
697,-3496.00,4056.00,-13580.00,29.33,-164.00,928.00,1046.00
698,-3364.00,3956.00,-13980.00,29.38,401.00,907.00,964.00
699,-3260.00,3964.00,-14032.00,29.42,-294.00,660.00,966.00
700,-3020.00,3756.00,-13772.00,29.28,16.00,316.00,905.00
701,-2944.00,3816.00,-13812.00,29.28,-194.00,-20.00,492.00
702,-3032.00,4056.00,-14040.00,29.33,-95.00,-216.00,380.00
703,-2896.00,3816.00,-14020.00,29.47,-145.00,-93.00,166.00
704,-2852.00,3912.00,-14076.00,29.28,-62.00,-298.00,-113.00
705,-3076.00,3876.00,-13952.00,29.33,-141.00,-689.00,-291.00
706,-3100.00,3824.00,-14060.00,29.24,-234.00,-886.00,-219.00
707,-2980.00,3812.00,-13976.00,29.24,-94.00,-836.00,-347.00
708,-3276.00,3832.00,-13972.00,29.33,-69.00,-803.00,-452.00
709,-3408.00,3784.00,-13928.00,29.33,-205.00,-881.00,-411.00
710,-3360.00,3756.00,-14128.00,29.33,-253.00,-722.00,-340.00
711,-3384.00,3708.00,-14048.00,29.33,-198.00,-745.00,-308.00
712,-3564.00,3764.00,-14068.00,29.33,-195.00,-731.00,-380.00
713,-3532.00,3536.00,-13644.00,29.33,-396.00,-725.00,-305.00
714,-3608.00,3644.00,-13780.00,29.42,-461.00,-625.00,-292.00
715,-3748.00,3804.00,-13904.00,29.33,-380.00,-722.00,-148.00
716,-3848.00,3600.00,-13904.00,29.33,-464.00,-777.00,-114.00
717,-3812.00,3748.00,-13764.00,29.33,-520.00,-581.00,-46.00
718,-3908.00,3604.00,-13800.00,29.28,-151.00,-393.00,-247.00
719,-3968.00,3608.00,-13836.00,29.28,-98.00,-423.00,-308.00
720,-4084.00,3568.00,-14008.00,29.38,-125.00,-414.00,-64.00
721,-3804.00,3520.00,-13672.00,29.33,-378.00,-179.00,-27.00
722,-3988.00,3508.00,-13712.00,29.33,-172.00,-232.00,-227.00
723,-4088.00,3592.00,-13984.00,29.33,-221.00,-220.00,-148.00
724,-3844.00,3576.00,-13796.00,29.24,-216.00,-60.00,-166.00
725,-4044.00,3624.00,-13808.00,29.38,-240.00,-38.00,-229.00
726,-4036.00,3564.00,-13800.00,29.28,-282.00,-62.00,-156.00
727,-3976.00,3576.00,-13992.00,29.24,-342.00,-50.00,-132.00
728,-3792.00,3464.00,-13792.00,29.42,-294.00,-32.00,-99.00
729,-3864.00,3560.00,-13784.00,29.28,-253.00,-113.00,-134.00
730,-3936.00,3588.00,-13784.00,29.28,-285.00,-154.00,-85.00
731,-3772.00,3432.00,-13808.00,29.33,-282.00,30.00,-330.00
732,-3804.00,3400.00,-13964.00,29.19,-40.00,75.00,-458.00
733,-3824.00,3540.00,-13888.00,29.42,-120.00,56.00,-245.00
734,-3696.00,3480.00,-13684.00,29.33,-267.00,-59.00,-25.00
735,-3708.00,3480.00,-13932.00,29.38,-438.00,-16.00,253.00
736,-3624.00,3344.00,-13964.00,29.33,-346.00,54.00,338.00
737,-3660.00,3432.00,-13888.00,29.28,-364.00,217.00,161.00
738,-3464.00,3356.00,-13932.00,29.24,-148.00,297.00,-173.00
739,-3480.00,3420.00,-14052.00,29.38,124.00,417.00,-362.00
740,-3360.00,3388.00,-14148.00,29.38,190.00,391.00,-373.00
741,-3372.00,3408.00,-13920.00,29.38,-81.00,216.00,-352.00
742,-3276.00,3224.00,-13976.00,29.28,-192.00,16.00,-198.00
743,-3356.00,3208.00,-14000.00,29.33,-362.00,-96.00,-89.00
744,-3144.00,3192.00,-14100.00,29.38,-268.00,-154.00,-164.00
745,-3228.00,3236.00,-14144.00,29.28,-281.00,-212.00,-272.00
746,-3248.00,3192.00,-14072.00,29.38,-305.00,-159.00,-290.00
747,-3200.00,3344.00,-14080.00,29.38,-339.00,-237.00,-249.00
748,-3284.00,3180.00,-13988.00,29.28,-309.00,-327.00,-160.00
749,-3268.00,3284.00,-14116.00,29.28,-350.00,-311.00,-137.00
750,-3336.00,3232.00,-14060.00,29.28,-415.00,-340.00,-153.00
751,-3300.00,3124.00,-14064.00,29.28,-354.00,-247.00,-201.00
752,-3368.00,3224.00,-14160.00,29.38,-356.00,-283.00,-167.00
753,-3360.00,3148.00,-13884.00,29.28,-571.00,-266.00,-134.00
754,-3396.00,3180.00,-14164.00,29.33,-489.00,-361.00,-109.00
755,-3404.00,3300.00,-14016.00,29.42,-461.00,-483.00,-205.00
756,-3380.00,3280.00,-14132.00,29.24,-305.00,-456.00,-315.00
757,-3316.00,3252.00,-13916.00,29.24,-290.00,-406.00,-336.00
758,-3444.00,3264.00,-13900.00,29.33,-286.00,-459.00,-265.00
759,-3572.00,3200.00,-14084.00,29.24,-296.00,-531.00,-212.00
760,-3576.00,3120.00,-14048.00,29.33,-305.00,-487.00,-130.00
761,-3636.00,3136.00,-13952.00,29.28,-319.00,-400.00,-148.00
762,-3608.00,3152.00,-14044.00,29.28,-215.00,-373.00,-261.00
763,-3536.00,3188.00,-13948.00,29.19,-362.00,-337.00,-189.00
764,-3712.00,3232.00,-13976.00,29.28,-334.00,-330.00,-152.00
765,-3736.00,3176.00,-13816.00,29.28,-293.00,-289.00,-139.00
7?
Sample,aX,aY,az,Temp,gX,gY,gz
1,-3224.00,3136.00,-14112.00,29.28,-412.00,-93.00,-187.00
2,-3140.00,3272.00,-14224.00,29.28,-394.00,-25.00,-251.00
3,-3228.00,3104.00,-14124.00,29.33,-285.00,-17.00,-249.00
4,-3124.00,3184.00,-14164.00,29.28,-323.00,195.00,-188.00
5,-3080.00,3204.00,-14060.00,29.19,-421.00,417.00,-145.00
6,-2984.00,3228.00,-14060.00,29.24,-165.00,497.00,-23.00
7,-2732.00,3168.00,-14328.00,29.28,-84.00,677.00,300.00
8,-2588.00,2996.00,-14140.00,29.28,70.00,798.00,270.00
9,-2604.00,3080.00,-14464.00,29.33,33.00,803.00,186.00
10,-2456.00,2992.00,-14272.00,29.33,-48.00,897.00,143.00
11,-2296.00,3048.00,-14320.00,29.24,129.00,803.00,254.00
12,-2112.00,2864.00,-14352.00,29.28,-186.00,717.00,309.00
13,-2056.00,2992.00,-14444.00,29.28,-134.00,613.00,315.00
14,-1916.00,2904.00,-14488.00,29.33,-279.00,454.00,367.00
15,-1836.00,2904.00,-14516.00,29.28,-282.00,333.00,238.00
16,-1796.00,2836.00,-14516.00,29.33,-242.00,249.00,141.00
17,-1648.00,2952.00,-14408.00,29.24,-318.00,168.00,-16.00
18,-1688.00,2896.00,-14436.00,29.28,-230.00,-42.00,-26.00
19,-1620.00,2956.00,-14452.00,29.33,-311.00,-138.00,5.00
20,-1572.00,2888.00,-14504.00,29.24,-245.00,-80.00,-97.00
21,-1600.00,2900.00,-14496.00,29.28,-303.00,-8.00,-159.00
22,-1608.00,2940.00,-14352.00,29.14,-265.00,-70.00,-162.00
23,-1600.00,2868.00,-14500.00,29.19,-317.00,-138.00,-93.00
24,-1596.00,28