-720968.00,-858.00                                                              
261,-2016.00,10432.00,-10852.00,29.89,-2485.00,-940.00,-1377.00                 
262,-2616.00,10388.00,-10328.00,29.94,-1415.00,-61100,-858.00                   
261,-2016.00,10432.00,-10852.00,29.89,-2485.00,-940.00,-1377.00                 
262,-2616.00,10388.00,-10328.00,29.94,-1415.00,-611.00-858.00                   
261,-2016.00,10432.00,-10852.00,29.89,-2485.00,-940.00,-1377.00                 
262,-2616.00,10388.00,-10328.00,29.94,-1415.00,-611.00,)rò                      
Sample,aX,aY,az,Temp,gX,gY,gz                                                   
1,-580.00,10116.00,-11196.00,30.04,-444.00,-263.00,-370.00                      
2,-436.00,9988.00,-10952.00,29.94,-278.00,-14.00,58.00                          
3,-404.00,10088.00,-11196.00,30.04,-233.00,-108.00,-91.00                       
4,-444.00,10128.00,-11132.00,30.08,-172.00,-187.00,-8.00                        
5,-292.00,10108.00,-11076.00,30.08,-714.00,-353.00,-124.00                      
6,-316.00,10176.00,-11112.00,30.08,-690.00,-348.00,-217.00                      
7,-476.00,10116.00,-11084.00,30.04,-360.00,-258.00,-122.00                      
8,-416.00,10136.00,-10980.00,30.08,-449.00,-115.00,-74.00                       
9,-332.00,10132.00,-11224.00,30.04,-345.00,-109.00,-155.00                      
10,-364.00,10152.00,-11032.00,29.94,-487.00,-313.00,-549.00                     
11,-568.00,10320.00,-11240.00,30.04,-805.00,-237.00,136.00                      
12,-244.00,10324.00,-11024.00,29.99,-531.00,-266.00,-498.00                     
13,-556.00,10416.00,-11044.00,29.99,-914.00,-358.00,-671.00                     
14,-600.00,10328.00,-11020.00,30.04,-846.00,-616.00,-482.00                     
15,-596.00,10232.00,-10616.00,30.04,-496.00,-357.00,-588.00                     
16,-672.00,10356.00,-11008.00,30.04,-289.00,-426.00,-463.00                     
17,-736.00,10340.00,-10760.00,30.04,-376.00,-263.00,-284.00                     
18,-908.00,10364.00,-10876.00,30.13,-342.00,-85.00,-249.00                      
19,-668.00,10412.00,-11072.00,30.08,-103.00,-28.00,-157.00                      
20,-680.00,10456.00,-11032.00,30.08,-628.00,-307.00,-541.00                     
21,-760.00,10244.00,-10752.00,29.99,-1005.00,-754.00,85.00                      
22,-612.00,10408.00,-10636.00,30.04,418.00,-482.00,568.00                       
23,-356.00,10652.00,-11576.00,29.99,1350.00,-703.00,-1025.00                    
24,-1132.00,10460.00,-11708.00,29.99,-417.00,-2307.00,-2440.00                  
25,-2044.00,9508.00,-10256.00,30.13,-2423.00,-1862.00,-1258.00                  
26,-1272.00,10192.00,-9800.00,29.99,-788.00,726.00,461.00                       
27,-988.0                                                                       
0,10616.00,-10692.00,30.04,1154.00,2105.00,-220.00
28,-1204.00,10368.00,-11260.00,30.04,1189.00,1058.00,-641.00
29,-1076.00,10360.00,-11280.00,30.04,-488.00,-376.00,-142.00
30,-1024.00,10404.00,-10952.00,30.13,-1059.00,-1238.00,-509.00
31,-1100.00,10308.00,-10684.00,29.99,-864.00,-1351.00,-914.00
32,-1564.00,10272.00,-10760.00,30.04,-799.00,-712.00,-244.00
33,-1196.00,10500.00,-10644.00,30.04,-141.00,-81.00,-603.00
34,-1824.00,8132.00,-10356.00,30.04,-1479.00,-99.00,-222.00
35,-1584.00,10496.00,-10556.00,30.04,-632.00,69.00,-502.00
36,-1548.00,10288.00,-10576.00,30.08,-406.00,157.00,-429.00
37,-1692.00,10440.00,-10692.00,29.99,-215.00,9.00,-55.00
38,-1348.00,10424.00,-10728.00,30.22,-247.00,-217.00,24.00
39,-1468.00,10524.00,-10852.00,30.08,-519.00,-289.00,93.00
40,-1468.00,10488.00,-10640.00,30.04,-391.00,-121.00,328.00
41,-1396.00,10492.00,-10708.00,30.04,-219.00,84.00,317.00
42,-1336.00,10564.00,-10832.00,29.99,-31.00,313.00,612.00
43,-1080.00,10548.00,-10764.00,30.13,-97.00,321.00,270.00
44,-1188.00,10420.00,-10952.00,29.99,-161.00,-5.00,239.00
45,-1084.00,10548.00,-10704.00,30.04,-269.00,-33.00,280.00
46,-932.00,10464.00,-10864.00,30.04,-310.00,16.00,304.00
47,-896.00,10516.00,-10888.00,30.04,-207.00,-89.00,144.00
48,-832.00,10408.00,-10836.00,30.04,-529.00,-119.00,181.00
49,-836.00,10436.00,-10944.00,29.99,-469.00,-134.00,-9.00
50,-872.00,10564.00,-10820.00,30.08,-418.00,-247.00,-251.00
51,-916.00,10516.00,-10788.00,30.08,-574.00,-357.00,-292.00
52,-888.00,10500.00,-10736.00,30.08,-584.00,-321.00,-453.00
53,-1060.00,10516.00,-10792.00,30.04,-561.00,-383.00,-467.00
54,-1016.00,10604.00,-10668.00,30.08,-387.00,-233.00,-257.00
55,-1028.00,10496.00,-10576.00,30.08,-407.00,-197.00,-209.00
56,-920.00,10588.00,-10884.00,30.13,-420.00,-268.00,-234.00
57,-1140.00,10424.00,-10696.00,30.04,-542.00,-355.00,-244.00
58,-1088.00,10576.00,-10636.00,30.13,-552.00,-311.00,-310.00
59,-1012.00,10716.00,-10724.00,30.13,-214.00,-173.00,-308.00
60,-1164.00,10600.00,-10632.00,30.18,-342.00,-323.00,-290.00
61,-1192.00,10592.00,-10596.00,29.99,-453.00,-312.00,-253.00
62,-1164.00,10664.00,-10748.00,30.08,-192.00,-218.00,-379.00
63,-1072.00,10656.00,-10572.00,29.99,-337.00,-291.00,-382.00
64,-1284.00,10552.00,-10644.00,30.04,-315.00,-336.00,-560.00
65,-1356.00,10596.00,-10608.00,30.04,-328.00,-272.00,-486.00
66,-1196.00,10520.00,-10708.00,30.13,-299.00,-269.00,-571.00
67,-1468.00,10476.00,-10540.00,30.04,-242.00,-226.00,-344.00
68,-1288.00,10528.00,-10616.00,30.13,-321.00,-290.00,-427.00
69,-1396.00,10592.00,-10628.00,30.13,-406.00,-345.00,-354.00
70,-1508.00,10528.00,-10656.00,30.04,-523.00,-314.00,-107.00
71,-1364.00,10632.00,-10756.00,30.13,-408.00,-140.00,-232.00
72,-1476.00,10624.00,-10728.00,30.13,-351.00,-299.00,-348.00
73,-1544.00,10496.00,-10568.00,30.08,-443.00,-231.00,-195.00
74,-1544.00,10552.00,-10644.00,29.99,-222.00,-194.00,-238.00
75,-1504.00,10520.00,-10652.00,30.13,-274.00,-76.00,-24.00
76,-1552.00,10524.00,-10648.00,30.13,-298.00,-158.00,4.00
77,-1448.00,10492.00,-10532.00,30.04,-203.00,22.00,346.00
78,-1256.00,10652.00,-10724.00,30.08,-317.00,14.00,290.00
79,-1308.00,10620.00,-10624.00,30.13,-558.00,-261.00,160.00
80,-1292.00,10608.00,-10748.00,30.13,-790.00,-338.00,19.00
81,-1284.00,10512.00,-10404.00,30.08,-373.00,-289.00,-360.00
82,-1292.00,10712.00,-10584.00,30.18,-44.00,-30.00,-324.00
83,-1308.00,10548.00,-10636.00,30.08,-46.00,0.00,-543.00
84,-1448.00,10572.00,-10672.00,30.13,-187.00,-111.00,-609.00
85,-1392.00,10520.00,-10612.00,30.13,-128.00,-144.00,-545.00
86,-1512.00,10456.00,-10792.00,30.13,-301.00,-205.00,-519.00
87,-1588.00,10444.00,-10636.00,30.13,-504.00,-354.00,-452.00
88,-1664.00,10424.00,-10508.00,30.13,-305.00,-137.00,-116.00
89,-1584.00,10484.00,-10672.00,30.08,-197.00,-44.00,23.00
90,-1452.00,10452.00,-10692.00,30.13,-308.00,-75.00,-9.00
91,-1396.00,10560.00,-10744.00,30.08,-397.00,-237.00,-14.00
92,-1460.00,10440.00,-10580.00,30.08,-446.00,-252.00,-72.00
93,-1432.00,10624.00,-10612.00,30.08,-475.00,-227.00,-129.00
94,-1456.00,10540.00,-10732.00,30.08,-424.00,-282.00,-221.00
95,-1436.00,10508.00,-10540.00,30.13,-550.00,-230.00,-182.00
96,-1488.00,10632.00,-10600.00,30.13,-436.00,-247.00,-237.00
97,-1620.00,10544.00,-10668.00,30.08,-245.00,-294.00,-214.00
98,-1460.00,10456.00,-10620.00,30.18,-548.00,-217.00,14.00
99,-1488.00,10548.00,-10648.00,30.13,-266.00,-177.00,-134.00
100,-1524.00,10604.00,-10744.00,30.13,-443.00,-244.00,-151.00
101,-1496.00,10564.00,-10700.00,30.18,-405.00,-167.00,-130.00
102,-1632.00,10700.00,-10848.00,30.13,-365.00,-219.00,-238.00
103,-1496.00,10580.00,-10728.00,30.13,-364.00,-199.00,-219.00
104,-1592.00,10536.00,-10496.00,30.18,-299.00,-165.00,-204.00
105,-1444.00,10588.00,-10768.00,30.22,-232.00,-131.00,-238.00
106,-1496.00,10568.00,-10676.00,30.13,-359.00,-250.00,-326.00
107,-1564.00,10488.00,-10496.00,30.08,-428.00,-258.00,-158.00
108,-1576.00,10548.00,-10488.00,30.13,-206.00,-20.00,-139.00
109,-1488.00,10608.00,-10648.00,30.13,-383.00,-192.00,-175.00
110,-1536.00,10604.00,-10756.00,30.08,-396.00,-281.00,-127.00
111,-1672.00,10596.00,-10680.00,30.18,-314.00,-179.00,-164.00
112,-1620.00,10452.00,-10616.00,30.13,-232.00,-119.00,-104.00
113,-1544.00,10484.00,-10752.00,30.04,-230.00,-103.00,-183.00
114,-1640.00,10604.00,-10620.00,30.08,-251.00,-152.00,-198.00
115,-1604.00,10528.00,-10536.00,30.13,-255.00,-167.00,-288.00
116,-1636.00,10552.00,-10792.00,30.13,-452.00,-245.00,-219.00
117,-1544.00,10520.00,-10652.00,30.08,-398.00,-266.00,-351.00
118,-1548.00,10480.00,-10580.00,30.18,-341.00,-277.00,-475.00
119,-1768.00,10552.00,-10664.00,30.13,-503.00,-269.00,-340.00
120,-1652.00,10556.00,-10544.00,30.04,-228.00,-238.00,-314.00
121,-1760.00,10516.00,-10728.00,30.18,-342.00,-169.00,-301.00
122,-1628.00,10492.00,-10612.00,30.13,-455.00,-277.00,-190.00
123,-1768.00,10576.00,-10560.00,30.13,-425.00,-206.00,-198.00
124,-1652.00,10568.00,-10532.00,30.18,-304.00,-156.00,-163.00
125,-1792.00,10504.00,-10512.00,30.08,-385.00,-237.00,-208.00
126,-1724.00,10496.00,-10676.00,30.13,-379.00,-215.00,-72.00
127,-1764.00,10480.00,-10576.00,30.13,-418.00,-215.00,-128.00
128,-1672.00,10488.00,-10468.00,30.18,-623.00,-576.00,18.00
129,-2016.00,10588.00,-10524.00,30.08,-477.00,-1582.00,120.00
130,-1988.00,10692.00,-10720.00,30.18,-2272.00,-3363.00,301.00
131,-2296.00,11140.00,-10644.00,30.18,-3660.00,-4176.00,609.00
132,-2532.00,11028.00,-8568.00,30.13,-1925.00,-2879.00,-252.00
133,-2780.00,11544.00,-9724.00,30.18,-344.00,-2142.00,-830.00
134,-2996.00,11576.00,-9860.00,30.13,-643.00,-2249.00,-1350.00
135,-3632.00,11576.00,-9524.00,30.08,-2441.00,-2914.00,-1419.00
136,-3860.00,12336.00,-10356.00,30.13,-7013.00,-4185.00,-797.00
137,-4180.00,12184.00,-9568.00,30.08,136.00,-4124.00,-305.00
138,-4692.00,10848.00,-8636.00,30.13,1634.00,-2665.00,-1231.00
139,-4604.00,11208.00,-8032.00,30.18,4539.00,-1434.00,-2221.00
140,-4944.00,10800.00,-8180.00,30.13,3802.00,-323.00,-1372.00
141,-5076.00,10232.00,-7900.00,30.22,993.00,535.00,-137.00
142,-4652.00,10588.00,-8780.00,30.13,970.00,712.00,206.00
143,-4912.00,10404.00,-9220.00,30.18,1335.00,827.00,181.00
144,-5428.00,9980.00,-9908.00,30.08,1482.00,671.00,776.00
145,-5232.00,11224.00,-9732.00,30.22,-821.00,151.00,3208.00
146,-4888.00,11048.00,-9192.00,30.13,-5851.00,-107.00,3681.00
147,-4844.00,10616.00,-8256.00,30.18,-1140.00,305.00,71.00
148,-4952.00,11240.00,-9344.00,30.13,1424.00,564.00,-772.00
149,-4356.00,12040.00,-9580.00,30.13,985.00,498.00,-531.00
150,-4184.00,17084.00,-10600.00,30.13,-18543.00,-2622.00,-6077.00
151,-7008.00,9516.00,-6284.00,30.22,-29329.00,-3785.00,-6970.00
152,-5920.00,11788.00,-2932.00,30.18,-8702.00,-1852.00,-2101.00
153,-5880.00,14340.00,-2020.00,30.18,-7906.00,-2167.00,-1528.00
154,-6244.00,13408.00,-560.00,30.04,-5270.00,-1074.00,-497.00
155,-7120.00,14596.00,1152.00,30.18,-2406.00,-1102.00,-238.00
156,-9040.00,14908.00,3240.00,30.13,1235.00,1692.00,1834.00
157,-9116.00,16272.00,2628.00,30.22,6866.00,11258.00,7662.00
158,-8440.00,16796.00,-1280.00,30.22,1026.00,17630.00,5025.00
159,-5628.00,17564.00,-5316.00,30.04,1754.00,21750.00,3818.00
160,-1592.00,17352.00,-3200.00,30.08,6722.00,26086.00,6749.00
161,2356.00,8272.00,88.00,30.13,19729.00,24325.00,11817.00
162,8356.00,6312.00,-3908.00,30.18,22213.00,22866.00,15266.00
163,12176.00,9476.00,-8580.00,30.13,11825.00,16629.00,7923.00
164,10724.00,7640.00,-7572.00,30.22,183.00,4522.00,-111.00
165,11460.00,8868.00,-8212.00,30.13,-3815.00,-3059.00,-823.00
166,11396.00,7756.00,-9752.00,30.27,-8998.00,-3501.00,-282.00
167,9616.00,9664.00,-6616.00,30.08,-8006.00,-716.00,-2232.00
168,9216.00,8584.00,-8364.00,30.13,-9260.00,1248.00,849.00
169,9432.00,8488.00,-5672.00,30.08,-5851.00,-1158.00,505.00
170,10684.00,11404.00,-6748.00,30.27,5585.00,-3298.00,-293.00
171,10344.00,12284.00,-8208.00,30.13,1288.00,-3924.00,-2417.00
172,9560.00,10720.00,-7252.00,30.18,-237.00,-2651.00,-2645.00
173,8868.00,9468.00,-8684.00,30.13,4709.00,-1405.00,-587.00
174,8644.00,11492.00,-9544.00,30.13,-3112.00,-989.00,341.00
175,7576.00,10296.00,-8020.00,30.18,-1713.00,-761.00,21.00
176,8436.00,11168.00,-7848.00,30.18,-1884.00,-318.00,-23.00
177,8848.00,11024.00,-7728.00,30.18,-2268.00,-949.00,-1081.00
178,9252.00,11004.00,-6064.00,30.27,-1522.00,-309.00,-1780.00
179,8548.00,9908.00,-6996.00,30.13,-208.00,645.00,-2503.00
180,7728.00,10544.00,-7620.00,30.18,827.00,375.00,-2238.00
181,7436.00,11408.00,-7980.00,30.18,1315.00,230.00,-2069.00
182,7288.00,12068.00,-8148.00,30.18,1943.00,-528.00,-2037.00
183,6848.00,10876.00,-7808.00,30.18,1936.00,298.00,-1979.00
184,5620.00,11116.00,-8696.00,30.18,3045.00,265.00,-1445.00
185,4516.00,12208.00,-8684.00,30.18,3835.00,-1719.00,-134.00
186,3800.00,10332.00,-9232.00,30.27,4074.00,-3704.00,1910.00
187,5244.00,11668.00,-10336.00,30.27,580.00,-5977.00,1296.00
188,6068.00,8872.00,-10440.00,30.22,-614.00,-8681.00,25.00
189,6700.00,8240.00,-8060.00,30.27,2141.00,-7660.00,565.00
190,7200.00,8512.00,-14192.00,30.18,12539.00,-3540.00,5721.00
191,5544.00,7784.00,-12980.00,30.18,89.00,-6805.00,-2631.00
192,5892.00,6276.00,-11728.00,30.18,-3163.00,1999.00,219.00
193,5080.00,7880.00,-12660.00,30.18,2284.00,1842.00,-1055.00
194,2780.00,7344.00,-10584.00,30.18,5113.00,2613.00,-1924.00
195,2816.00,7464.00,-12728.00,30.22,232.00,1153.00,546.00
196,2676.00,7852.00,-13424.00,30.08,-1830.00,2343.00,4968.00
197,4220.00,7808.00,-12452.00,30.18,-3336.00,4260.00,6650.00
198,6188.00,7900.00,-11376.00,30.22,-3476.00,2486.00,5083.00
199,6400.00,8096.00,-11388.00,30.22,-1855.00,31.00,267.00
200,5972.00,8084.00,-11508.00,30.18,555.00,8.00,-265.00
201,6016.00,8040.00,-11848.00,30.13,723.00,194.00,-18.00
202,6132.00,8044.00,-11816.00,30.13,-1602.00,-73.00,-334.00
203,6024.00,8108.00,-11620.00,30.13,1.00,-433.00,-306.00
204,5932.00,8052.00,-11580.00,30.27,-285.00,-882.00,-351.00
205,5976.00,8068.00,-11760.00,30.27,-140.00,-787.00,-405.00
206,5884.00,8040.00,-11728.00,30.08,-425.00,-765.00,-633.00
207,5776.00,8040.00,-11796.00,30.27,-775.00,-766.00,-583.00
208,5824.00,8084.00,-11960.00,30.18,-1007.00,-594.00,-407.00
209,5728.00,8168.00,-11440.00,30.18,-1147.00,-1233.00,-1033.00
210,5344.00,8332.00,-11656.00,30.22,-98.00,-1590.00,-1487.00
211,5124.00,8248.00,-11788.00,30.22,-485.00,-150.00,-380.00
212,5304.00,8292.00,-12132.00,30.13,238.00,1131.00,-321.00
213,4500.00,7496.00,-10088.00,30.22,-1244.00,978.00,95.00
214,5508.00,8172.00,-11852.00,30.18,85.00,-133.00,-1007.00
215,5572.00,8096.00,-11448.00,30.22,510.00,-761.00,-1004.00
216,5664.00,8088.00,-11672.00,30.13,836.00,753.00,-365.00
217,5620.00,7904.00,-11980.00,30.27,1032.00,583.00,-470.00
218,5772.00,8096.00,-12500.00,30.18,-1591.00,-57.00,-378.00
219,5740.00,7960.00,-11840.00,30.27,-304.00,-1147.00,-719.00
220,5576.00,7988.00,-12116.00,30.18,-251.00,-316.00,-158.00
221,5556.00,7968.00,-11892.00,30.18,-247.00,-773.00,-312.00
222,5572.00,7776.00,-11852.00,30.18,597.00,82.00,436.00
223,5444.00,7748.00,-12416.00,30.27,-1130.00,-13.00,931.00
224,5760.00,7732.00,-11320.00,30.18,-429.00,315.00,700.00
225,5992.00,7768.00,-12328.00,30.22,1182.00,-1142.00,-1035.00
226,5636.00,7720.00,-12280.00,30.22,569.00,-383.00,-287.00
227,5388.00,7504.00,-12104.00,30.22,587.00,533.00,400.00
228,5384.00,8208.00,-12752.00,30.27,36.00,2784.00,2130.00
229,5820.00,7464.00,-12060.00,30.22,-862.00,-521.00,-116.00
230,7384.00,7164.00,-11764.00,30.22,-1005.00,-382.00,-355.00
231,6836.00,6976.00,-12016.00,30.22,-726.00,-1151.00,-1251.00
232,6172.00,7400.00,-11556.00,30.22,826.00,-2558.00,-2872.00
233,5252.00,7456.00,-12404.00,30.32,1774.00,-2106.00,-3451.00
234,4824.00,7428.00,-12680.00,30.27,-366.00,-88.00,163.00
235,5332.00,7416.00,-12300.00,30.22,-903.00,534.00,821.00
236,5216.00,7352.00,-12348.00,30.27,-1590.00,879.00,1729.00
237,6076.00,7508.00,-11900.00,30.18,-2978.00,542.00,1808.00
238,6136.00,7684.00,-11844.00,30.22,-1883.00,-63.00,-423.00
239,6036.00,7844.00,-11488.00,30.22,-743.00,-488.00,-773.00
240,5852.00,7932.00,-11804.00,30.22,200.00,-1225.00,-1722.00
241,5788.00,7784.00,-11712.00,30.32,1423.00,-1674.00,-1966.00
242,5000.00,7848.00,-12472.00,30.27,626.00,-1251.00,-1339.00
243,4880.00,7688.00,-12020.00,30.27,-795.00,250.00,853.00
244,5356.00,7796.00,-12212.00,30.27,-1359.00,459.00,1382.00
245,5872.00,7904.00,-11576.00,30.27,-2311.00,-127.00,-5.00
246,5540.00,8096.00,-11736.00,30.22,-1107.00,-88.00,27.00
247,5464.00,8076.00,-11508.00,30.18,-1252.00,-183.00,231.00
248,5288.00,7996.00,-11948.00,30.27,521.00,-342.00,-39.00
249,5312.00,8188.00,-12072.00,30.22,-546.00,84.00,642.00
250,5796.00,8084.00,-12176.00,30.27,-1730.00,143.00,2425.00
251,5904.00,8200.00,-11644.00,30.27,-1537.00,-297.00,1167.00
252,6176.00,8052.00,-11716.00,30.18,-1372.00,-326.00,74.00
253,5772.00,8116.00,-11208.00,30.27,442.00,-634.00,-1461.00
254,6108.00,8240.00,-11228.00,30.27,-47.00,-898.00,-1834.00
255,5512.00,8116.00,-11652.00,30.32,1957.00,-1330.00,-2402.00
256,5280.00,7960.00,-11964.00,30.37,1948.00,-1327.00,-2875.00
257,4808.00,7832.00,-12408.00,30.32,452.00,-1331.00,-1377.00
258,4436.00,7744.00,-12180.00,30.22,-394.00,638.00,1727.00
259,5324.00,7716.00,-12344.00,30.22,-1191.00,1145.00,1565.00
260,5752.00,7848.00,-12604.00,30.32,-2072.00,478.00,-9.00
261,5920.00,7976.00,-11288.00,30.18,383.00,-622.00,-1016.00
262,5264.00,7816.00,-11912.00,30.32,666.00,-918.00,-1396.00
263,5096.00,7680.00,-12024.00,30.27,1780.00,-981.00,-1696.00
264,4924.00,7644.00,-12524.00,30.22,929.00,-865.00,-1031.00
265,4548.00,7424.00,-12476.00,30.32,174.00,-611.00,-365.00
266,4728.00,7604.00,-12600.00,30.37,-1182.00,-322.00,102.00
267,4888.00,7476.00,-12232.00,30.27,-1305.00,138.00,370.00
268,5100.00,7680.00,-12160.00,30.18,-853.00,312.00,287.00
269,5152.00,7716.00,-11992.00,30.27,-636.00,-247.00,-155.00
270,5168.00,7788.00,-12324.00,30.18,-1746.00,-644.00,-717.00
271,4964.00,7924.00,-11940.00,30.18,-1270.00,-763.00,-606.00
272,4768.00,8096.00,-12008.00,30.22,-734.00,-223.00,-333.00
273,4828.00,8140.00,-12268.00,30.22,-989.00,-194.00,-309.00
274,4844.00,8120.00,-11728.00,30.32,-591.00,106.00,-78.00
275,4924.00,8144.00,-11916.00,30.37,-448.00,-202.00,-215.00
276,4944.00,8180.00,-12124.00,30.18,-992.00,-810.00,-806.00
277,4612.00,8256.00,-12060.00,30.18,-608.00,-760.00,-675.00
278,4592.00,8268.00,-11792.00,30.27,-607.00,-474.00,-555.00
279,4648.00,8336.00,-11912.00,30.27,-653.00,-431.00,-428.00
280,4596.00,8400.00,-11824.00,30.18,-466.00,-195.00,-211.00
281,4608.00,8468.00,-11924.00,30.27,-393.00,-248.00,-256.00
282,4584.00,8412.00,-12024.00,30.27,-326.00,-151.00,-200.00
283,4544.00,8416.00,-11808.00,30.27,-310.00,-115.00,-217.00
284,4564.00,8388.00,-11840.00,30.27,-286.00,-257.00,-280.00
285,4552.00,8476.00,-11992.00,30.27,55.00,-239.00,-232.00
286,4632.00,8312.00,-11992.00,30.22,-426.00,-518.00,-387.00
287,4524.00,8404.00,-12020.00,30.22,-802.00,-647.00,-316.00
288,4448.00,8520.00,-11952.00,30.32,-1189.00,-1008.00,-607.00
289,4360.00,8612.00,-11988.00,30.27,-1649.00,-626.00,-803.00
290,4104.00,8736.00,-11728.00,30.18,-1075.00,-270.00,-693.00
291,4208.00,8900.00,-11820.00,30.37,-959.00,-156.00,-500.00
292,4136.00,9004.00,-11852.00,30.22,-1117.00,-226.00,-729.00
293,4308.00,9124.00,-11632.00,30.32,-1545.00,-74.00,-1053.00
294,4108.00,9192.00,-11504.00,30.22,-1105.00,-42.00,-1262.00
295,3968.00,9340.00,-11460.00,30.22,-1791.00,-37.00,-1091.00
296,4060.00,9540.00,-11372.00,30.27,-2136.00,-34.00,-943.00
297,4000.00,9684.00,-11012.00,30.32,-1804.00,-1.00,-823.00
298,3900.00,9764.00,-10696.00,30.32,-764.00,73.00,-403.00
299,4024.00,9692.00,-10424.00,30.22,865.00,274.00,-469.00
300,3916.00,9548.00,-11092.00,30.27,3069.00,1144.00,-401.00
301,4460.00,9336.00,-11952.00,30.27,2082.00,1138.00,-361.00
302,4152.00,9200.00,-11952.00,30.27,177.00,1020.00,-513.00
303,4548.00,9208.00,-11620.00,30.32,-759.00,609.00,-841.00
304,4288.00,8720.00,-11600.00,30.32,-184.00,-292.00,-1278.00
305,4480.00,9388.00,-11648.00,30.32,-1051.00,-1147.00,-1106.00
306,4128.00,9292.00,-11460.00,30.37,-1003.00,-1427.00,-1060.00
307,4208.00,9192.00,-11416.00,30.22,-2329.00,-1375.00,-937.00
308,3556.00,9696.00,-11120.00,30.27,-1467.00,-878.00,-874.00
309,3408.00,9620.00,-10856.00,30.32,-1368.00,-320.00,-160.00
310,3612.00,9832.00,-10932.00,30.32,-671.00,-184.00,-293.00
311,3480.00,9912.00,-10936.00,30.22,-577.00,-157.00,-615.00
312,3528.00,10004.00,-10924.00,30.32,-872.00,-128.00,-508.00
313,3316.00,10012.00,-10772.00,30.37,-1024.00,-220.00,-442.00
314,3616.00,10064.00,-10844.00,30.27,-602.00,-172.00,-169.00
315,3564.00,10124.00,-10900.00,30.32,-108.00,-238.00,-177.0ÿ
Sample,aX,aY,az,Temp,gX,gY,gz
1,3508.00,9436.00,-11240.00,30.22,-405.00,-227.00,-208.00
2,3632.00,9524.00,-11540.00,30.37,-483.00,-211.00,-181.00
3,3572.00,9444.00,-11320.00,30.32,-199.00,-189.00,-187.00
4,3456.00,9412.00,-11464.00,30.32,-191.00,-201.00,-144.00
5,3572.00,9376.00,-11136.00,30.32,-32.00,-198.00,-120.00
6,3580.00,9452.00,-11352.00,30.22,59.00,-159.00,-70.00
7,3656.00,9316.00,-11196.00,30.22,150.00,-128.00,-28.00
8,3712.00,9180.00,-11548.00,30.32,563.00,-83.00,63.00
9,3576.00,9196.00,-11468.00,30.32,789.00,-48.00,236.00
10,3812.00,8972.00,-11664.00,30.41,1032.00,116.00,330.00
11,3724.00,8904.00,-12164.00,30.37,1088.00,353.00,219.00
12,3948.00,8676.00,-11796.00,30.27,383.00,279.00,209.00
13,4032.00,8564.00,-11988.00,30.41,446.00,62.00,103.00
14,4052.00,8372.00,-11860.00,30.32,743.00,180.00,67.00
15,4108.00,8412.00,-12016.00,30.32,548.00,294.00,223.00
16,4220.00,8192.00,-11776.00,30.41,547.00,-13.00,-54.00
17,4140.00,8240.00,-12188.00,30.27,68.00,-119.00,-128.00
18,4228.00,8112.00,-12144.00,30.32,-27.00,-281.00,-187.00
19,4216.00,8032.00,-12400.00,30.27,-296.00,-297.00,-194.00
20,4136.00,8184.00,-12284.00,30.37,-219.00,-391.00,-247.00
21,4176.00,8104.00,-12132.00,30.32,-117.00,-412.00,-314.00
22,4144.00,7992.00,-12156.00,30.22,-390.00,-306.00,-188.00
23,4188.00,8104.00,-12052.00,30.37,-414.00,-301.00,-146.00
24,4052.00,8124.00,-12160.00,30.27,-480.00,-147.00,-72.00
25,4128.00,8216.00,-12284.00,30.32,-831.00,-186.00,-45.00
26,4180.00,8268.00,-12308.00,30.27,-812.00,167.00,419.00
27,4296.00,8104.00,-12040.00,30.32,-418.00,-23.00,70.00
28,4296.00,8228.00,-12208.00,30.37,-287.00,-84.00,-29.00
29,4372.00,8088.00,-12116.00,30.27,-6.00,-72.00,-69.00
30,4404.00,8200.00,-12208.00,30.37,-540.00,-153.00,-91.00
31,4476.00,8112.00,-12284.00,30.22,-403.00,-310.00,-277.00
32,4372.00,8188.00,-12008.00,30.32,-585.00,-406.00,-258.00
33,4268.00,8144.00,-11988.00,30.32,-338.00,-404.00,-314.00
34,4220.00,8204.00,-12144.00,30.22,-257.00,-243.00,-257.00
35,4276.00,8184.00,-12260.00,30.37,-307.00,-400.00,-349.00
36,4208.00,8188.00,-12124.00,30.27,-848.00,-642.00,-532.00
37,4196.00,8220.00,-12192.00,30.27,-831.00,-186.00,-117.00
38,4208.00,8260.00,-11960.00,30.22,-497.00,-490.00,-304.00
39,4176.00,8288.00,-12192.00,30.32,-256.00,-705.00,-526.00
40,3956.00,8284.00,-12048.00,30.22,-286.00,-637.00,-563.00
41,3916.00,8384.00,-12464.00,30.37,-1150.00,-925.00,-665.00
42,3832.00,8440.00,-12120.00,30.27,-1772.00,155.00,23.00
43,3932.00,8564.00,-11820.00,30.32,-1539.00,78.00,-53.00
44,3968.00,8740.00,-11680.00,30.37,-845.00,-158.00,-226.00
45,3920.00,8700.00,-11852.00,30.37,-910.00,-428.00,-637.00
46,3956.00,8812.00,-11772.00,30.32,-249.00,-579.00,-682.00
47,3764.00,8892.00,-11932.00,30.32,-342.00,-925.00,-904.00
48,3572.00,8872.00,-11712.00,30.37,-1182.00,-430.00,-413.00
49,3712.00,8884.00,-11816.00,30.37,-500.00,-85.00,-79.00
50,3676.00,8892.00,-11812.00,30.32,-185.00,-155.00,-161.00
51,3756.00,8904.00,-11884.00,30.32,-274.00,-188.00,-150.00
52,3784.00,8944.00,-11660.00,30.27,-719.00,-213.00,-171.00
53,3680.00,8892.00,-11620.00,30.37,-412.00,-237.00,-245.00
54,3708.00,9004.00,-11732.00,30.37,-645.00,-163.00,-205.00
55,3700.00,9056.00,-11752.00,30.37,-772.00,-146.00,-184.00
56,3708.00,9076.00,-11496.00,30.41,-855.00,-97.00,-233.00
57,3692.00,9140.00,-11656.00,30.32,-703.00,-204.00,-229.00
58,3684.00,9136.00,-11644.00,30.37,-464.00,-209.00,-225.00
59,3688.00,9088.00,-11564.00,30.37,-664.00,-191.00,-229.00
60,3732.00,9228.00,-11832.00,30.37,-302.00,-198.00,-263.00
61,3660.00,9076.00,-11612.00,30.32,-425.00,-167.00,-231.00
62,3712.00,9212.00,-11588.00,30.32,-456.00,-212.00,-187.00
63,3672.00,9240.00,-11572.00,30.41,-280.00,-158.00,-220.00
64,3636.00,9192.00,-11684.00,30.32,-464.00,-189.00,-168.00
65,3808.00,9136.00,-11508.00,30.37,-112.00,-256.00,-223.00
66,3632.00,9152.00,-11676.00,30.27,-381.00,-274.00,-169.00
67,3684.00,9124.00,-11776.00,30.41,-177.00,-196.00,-148.00
68,3668.00,9200.00,-11560.00,30.41,-311.00,-261.00,-194.00
69,3752.00,9140.00,-11588.00,30.37,-279.00,-220.00,-227.00
70,3716.00,9124.00,-11648.00,30.37,-239.00,-245.00,-170.00
71,3712.00,9116.00,-11748.00,30.37,-417.00,-202.00,-209.00
72,3740.00,9132.00,-11500.00,30.41,-387.00,-279.00,-216.00
73,3756.00,9136.00,-11532.00,30.32,-400.00,-220.00,-152.00
74,3664.00,9136.00,-11632.00,30.32,-423.00,-265.00,-241.00
75,3732.00,9168.00,-11640.00,30.37,-385.00,-235.00,-212.00
76,3716.00,9104.00,-11672.00,30.27,-439.00,-263.00,-230.00
77,3736.00,9260.00,-11512.00,30.32,-389.00,-229.00,-245.00
78,3700.00,9188.00,-11432.00,30.41,-330.00,-221.00,-183.00
79,3640.00,9224.00,-11684.00,30.27,-315.00,-223.00,-155.00
80,3636.00,9168.00,-11580.00,30.37,-214.00,-226.00,-153.00
81,3668.00,9136.00,-11524.00,30.37,-335.00,-212.00,-159.00
82,3660.00,9052.00,-11588.00,30.32,-180.00,-219.00,-215.00
83,3612.00,9168.00,-11628.00,30.41,-296.00,-198.00,-215.00
84,3764.00,9080.00,-11552.00,30.41,-261.00,-191.00,-187.00
85,3664.00,9124.00,-11540.00,30.46,-183.00,-215.00,-153.00
86,3604.00,8960.00,-11608.00,30.37,-67.00,-176.00,-161.00
87,3616.00,9076.00,-11628.00,30.37,211.00,-152.00,-114.00
88,3592.00,9024.00,-11728.00,30.32,66.00,-185.00,-107.00
89,3696.00,8992.00,-11760.00,30.32,-40.00,-186.00,-140.00
90,3732.00,8840.00,-11856.00,30.32,-95.00,-184.00,-151.00
91,3712.00,8912.00,-11892.00,30.27,-263.00,-214.00,-187.00
92,3760.00,8828.00,-11736.00,30.46,-260.00,-196.00,-187.00
93,3776.00,8884.00,-11776.00,30.41,-197.00,-122.00,-125.00
94,3732.00,8860.00,-11760.00,30.32,-252.00,-173.00,-155.00
95,3744.00,8852.00,-11868.00,30.41,-204.00,-164.00,-172.00
96,3744.00,8792.00,-11776.00,30.37,-345.00,-193.00,-217.00
97,3752.00,8800.00,-11780.00,30.37,-296.00,-160.00,-156.00
98,3732.00,8708.00,-11800.00,30.37,-317.00,-172.00,-191.00
99,3772.00,8740.00,-11764.00,30.32,-366.00,-218.00,-229.00
100,3736.00,8784.00,-11984.00,30.32,-330.00,-195.00,-179.00
101,3632.00,8724.00,-11864.00,30.32,-458.00,-233.00,-218.00
102,3764.00,8772.00,-11764.00,30.41,-347.00,-229.00,-202.00
103,3740.00,8808.00,-11680.00,30.51,-315.00,-244.00,-235.00
104,3796.00,8784.00,-11600.00,30.32,-268.00,-273.00,-224.00
105,3832.00,8724.00,-11784.00,30.41,-318.00,-206.00,-210.00
106,3664.00,8768.00,-11740.00,30.32,-279.00,-281.00,-157.00
107,3680.00,8788.00,-11732.00,30.41,-318.00,-225.00,-221.00
108,3760.00,8776.00,-11920.00,30.41,-358.00,-194.00,-203.00
109,3660.00,8744.00,-11752.00,30.32,-378.00,-219.00,-174.00
110,3848.00,8784.00,-11820.00,30.41,-489.00,-226.00,-229.00
111,3660.00,8820.00,-11744.00,30.32,-410.00,-259.00,-239.00
112,3696.00,8856.00,-11892.00,30.32,-307.00,-248.00,-203.00
113,3692.00,8780.00,-11932.00,30.41,-439.00,-220.00,-220.00
114,3612.00,8860.00,-11760.00,30.37,-269.00,-236.00,-209.00
115,3656.00,8796.00,-11820.00,30.37,-359.00,-268.00,-215.00
116,3752.00,8744.00,-11852.00,30.37,-314.00,-210.00,-204.00
117,3728.00,8808.00,-11728.00,30.37,-342.00,-204.00,-190.00
118,3800.00,8880.00,-11844.00,30.46,-404.00,-215.00,-210.00
119,3744.00,8820.00,-11644.00,30.37,-339.00,-216.00,-176.00
120,3712.00,8808.00,-11660.00,30.37,-475.00,-246.00,-194.00
121,3780.00,8740.00,-11716.00,30.37,-272.00,-171.00,-199.00
122,3732.00,8896.00,-11788.00,30.37,-427.00,-220.00,-199.00
123,3708.00,8796.00,-11676.00,30.37,-352.00,-170.00,-196.00
124,3744.00,8844.00,-11904.00,30.46,-374.00,-184.00,-183.00
125,3620.00,8744.00,-11800.00,30.37,-321.00,-196.00,-190.00
126,3736.00,8800.00,-11684.00,30.37,-284.00,-210.00,-179.00
127,3724.00,8860.00,-11692.00,30.37,-285.00,-135.00,-156.00
128,3700.00,8712.00,-11780.00,30.46,-301.00,-191.00,-179.00
129,3788.00,8752.00,-11908.00,30.37,-238.00,-192.00,-164.00
130,3788.00,8696.00,-11968.00,30.41,-352.00,-152.00,-137.00
131,3756.00,8748.00,-11880.00,30.32,-397.00,-196.00,-250.00
132,3720.00,8716.00,-11852.00,30.41,-418.00,-212.00,-205.00
133,3788.00,8800.00,-11804.00,30.41,-389.00,-218.00,-232.00
134,3712.00,8764.00,-11892.00,30.41,-526.00,-214.00,-207.00
135,3748.00,8792.00,-11864.00,30.41,-379.00,-164.00,-154.00
136,3776.00,8840.00,-11664.00,30.32,-468.00,-130.00,-97.00
137,3792.00,8860.00,-11792.00,30.32,104.00,-68.00,-129.00
138,3708.00,8744.00,-11836.00,30.37,-342.00,45.00,53.00
139,3948.00,8744.00,-11608.00,30.41,-325.00,175.00,118.00
140,4020.00,8756.00,-11804.00,30.37,-62.00,532.00,540.00
141,4112.00,8788.00,-11776.00,30.32,-581.00,105.00,236.00
142,4200.00,8772.00,-12200.00,30.46,281.00,-33.00,60.00
143,4088.00,8596.00,-11816.00,30.41,-503.00,146.00,243.00
144,4228.00,8560.00,-11928.00,30.46,19.00,820.00,1180.00
145,4540.00,8528.00,-12060.00,30.41,-77.00,1174.00,2059.00
146,4716.00,8616.00,-11916.00,30.41,-207.00,778.00,1472.00
147,5192.00,8308.00,-11724.00,30.37,-459.00,532.00,871.00
148,4928.00,8568.00,-11712.00,30.32,-1237.00,344.00,1599.00
149,5340.00,8200.00,-11584.00,30.41,-462.00,351.00,1613.00
150,5180.00,8668.00,-12100.00,30.41,-1749.00,-101.00,1874.00
151,4656.00,8144.00,-11504.00,30.41,-883.00,-2024.00,785.00
152,6912.00,8356.00,-11152.00,30.41,-181.00,-758.00,253.00
153,6620.00,8288.00,-11496.00,30.41,-407.00,-1011.00,-1719.00
154,5752.00,8152.00,-11600.00,30.41,2398.00,-2158.00,-3926.00
155,5144.00,8384.00,-12112.00,30.37,3497.00,-2155.00,-5117.00
156,3884.00,7860.00,-12168.00,30.41,636.00,55.00,-1675.00
157,2656.00,7480.00,-12460.00,30.37,849.00,790.00,591.00
158,2956.00,8020.00,-12372.00,30.51,-194.00,2830.00,4440.00
159,4700.00,7604.00,-12660.00,30.41,-4299.00,851.00,3101.00
160,5364.00,7772.00,-11868.00,30.37,-2921.00,-616.00,1358.00
161,4924.00,8084.00,-11720.00,30.46,-1572.00,-813.00,667.00
162,5904.00,8284.00,-11640.00,30.37,-1312.00,-984.00,458.00
163,5888.00,8116.00,-11624.00,30.37,-534.00,-770.00,-534.00
164,5624.00,8228.00,-11532.00,30.46,367.00,-1150.00,-1718.00
165,5504.00,8164.00,-11728.00,30.41,1660.00,-1807.00,-2932.00
166,4688.00,7996.00,-12356.00,30.37,2112.00,-859.00,-3466.00
167,4484.00,7820.00,-12072.00,30.46,148.00,23.00,-1420.00
168,4336.00,7872.00,-12068.00,30.51,200.00,145.00,-822.00
169,5104.00,8008.00,-12228.00,30.41,135.00,-209.00,-1066.00
170,3552.00,7584.00,-11972.00,30.37,-234.00,107.00,2.00
171,4472.00,7680.00,-12368.00,30.32,419.00,938.00,998.00
172,5008.00,7728.00,-12828.00,30.41,-1027.00,1242.00,2144.00
173,5384.00,7840.00,-11968.00,30.37,-2294.00,554.00,902.00
174,4820.00,7876.00,-12500.00,30.41,-1700.00,-287.00,1513.00
175,5556.00,8032.00,-11616.00,30.37,-3400.00,-632.00,922.00
176,5188.00,7956.00,-11788.00,30.37,-2575.00,-1047.00,-584.00
177,5628.00,8596.00,-11380.00,30.32,-1024.00,-706.00,-467.00
178,5236.00,8632.00,-11368.00,30.46,-516.00,-279.00,-377.00
179,5388.00,8592.00,-11488.00,30.46,-399.00,-372.00,-574.00
180,5188.00,8588.00,-11668.00,30.37,652.00,-1288.00,-1505.00
181,5024.00,8576.00,-12012.00,30.37,392.00,-851.00,-1788.00
182,5116.00,8432.00,-11788.00,30.37,1601.00,-1366.00,-3579.00
183,4652.00,8272.00,-12028.00,30.41,113.00,35.00,-1609.00
184,4104.00,8268.00,-12004.00,30.37,362.00,-123.00,-965.00
185,3896.00,8080.00,-12080.00,30.46,126.00,13.00,-419.00
186,4216.00,8208.00,-12020.00,30.41,-164.00,642.00,462.00
187,4640.00,8240.00,-12040.00,30.46,-864.00,1329.00,1355.00
188,4936.00,8336.00,-11672.00,30.46,-2266.00,942.00,1396.00
189,5136.00,8484.00,-11760.00,30.46,-1175.00,290.00,370.00
190,5096.00,8392.00,-11588.00,30.46,-478.00,-291.00,-353.00
191,5164.00,8476.00,-11428.00,30.46,-562.00,-256.00,-383.00
192,4528.00,8384.00,-11732.00,30.46,536.00,-1090.00,-1506.00
193,5368.00,8284.00,-11608.00,30.41,1572.00,-2082.00,-3367.00
194,4852.00,8364.00,-12152.00,30.46,750.00,-1194.00,-2908.00
195,3400.00,8220.00,-12412.00,30.37,-390.00,-934.00,-1254.00
196,3348.00,8304.00,-12472.00,30.37,-1160.00,-420.00,-405.00
197,3908.00,8340.00,-11952.00,30.32,-648.00,626.00,850.00
198,4168.00,8532.00,-12340.00,30.46,-1883.00,882.00,1046.00
199,4268.00,8412.00,-11724.00,30.46,-2302.00,-105.00,2588.00
200,4492.00,8556.00,-11592.00,30.41,-1496.00,715.00,2678.00
201,5288.00,8948.00,-11620.00,30.41,-446.00,167.00,1108.00
202,5164.00,8732.00,-11484.00,30.41,-944.00,-360.00,779.00
203,4992.00,8768.00,-11360.00,30.46,-751.00,-681.00,66.00
204,5612.00,8744.00,-11464.00,30.46,-38.00,-490.00,-415.00
205,5144.00,8740.00,-11664.00,30.41,-192.00,-1097.00,-1681.00
206,5080.00,8588.00,-11600.00,30.46,1642.00,-1356.00,-2871.00
207,4560.00,8516.00,-11880.00,30.32,1788.00,-935.00,-3801.00
208,3704.00,8376.00,-12120.00,30.41,648.00,-733.00,-1919.00
209,4200.00,8372.00,-11888.00,30.51,476.00,-44.00,-1101.00
210,3404.00,8188.00,-12224.00,30.41,-56.00,482.00,542.00
211,4040.00,8196.00,-12520.00,30.46,942.00,1091.00,1727.00
212,4752.00,8076.00,-12032.00,30.46,-2202.00,1152.00,2280.00
213,4680.00,8260.00,-12028.00,30.46,-1170.00,435.00,2086.00
214,5216.00,8144.00,-12448.00,30.46,-3115.00,491.00,1411.00
215,4884.00,8560.00,-11520.00,30.46,-1172.00,-273.00,410.00
216,5052.00,8520.00,-11380.00,30.37,-1126.00,0.00,473.00
217,5088.00,8692.00,-11628.00,30.41,-268.00,-136.00,634.00
218,5008.00,8488.00,-11616.00,30.32,-612.00,-622.00,1404.00
219,6056.00,8592.00,-11540.00,30.41,-144.00,-1014.00,-106.00
220,5168.00,8572.00,-11640.00,30.41,204.00,-811.00,-1193.00
221,4700.00,8432.00,-11624.00,30.51,-206.00,-1028.00,-2492.00
222,4628.00,8424.00,-11256.00,30.37,1089.00,-399.00,-2172.00
223,4300.00,8476.00,-12180.00,30.46,405.00,385.00,-567.00
224,4652.00,8376.00,-11604.00,30.46,-702.00,873.00,720.00
225,4552.00,8192.00,-11436.00,30.51,-1627.00,899.00,2212.00
226,5072.00,8424.00,-11700.00,30.51,65.00,-414.00,1185.00
227,5640.00,8232.00,-11536.00,30.46,-1165.00,-979.00,1075.00
228,5460.00,8280.00,-11472.00,30.46,-395.00,-886.00,-874.00
229,5256.00,8296.00,-11856.00,30.37,981.00,-1508.00,-2156.00
230,4988.00,8256.00,-11824.00,30.51,1125.00,-1035.00,-3873.00
231,4200.00,8052.00,-11668.00,30.37,2298.00,21.00,-2734.00
232,3916.00,7928.00,-12704.00,30.46,-89.00,333.00,-1329.00
233,3908.00,7968.00,-12172.00,30.51,217.00,-12.00,-498.00
234,4188.00,8024.00,-12304.00,30.46,-620.00,246.00,281.00
235,4396.00,7900.00,-12424.00,30.51,622.00,813.00,876.00
236,4532.00,7860.00,-12092.00,30.51,-967.00,-153.00,653.00
237,4756.00,7860.00,-12096.00,30.37,-1771.00,-298.00,199.00
238,4576.00,7972.00,-12020.00,30.55,-157.00,-69.00,-55.00
239,4512.00,7988.00,-12420.00,30.46,-1871.00,-79.00,59.00
240,4792.00,8232.00,-11684.00,30.51,-1417.00,614.00,924.00
241,4980.00,8344.00,-12020.00,30.37,-1386.00,62.00,4.00
242,4928.00,8352.00,-11616.00,30.51,-135.00,49.00,155.00
243,4956.00,8412.00,-11760.00,30.46,-1025.00,-478.00,-500.00
244,5100.00,8360.00,-11668.00,30.37,347.00,-579.00,-596.00
245,4800.00,8260.00,-11692.00,30.46,1046.00,-957.00,-1541.00
246,4560.00,8312.00,-12092.00,30.41,127.00,-861.00,-1201.00
247,4548.00,8224.00,-12240.00,30.51,355.00,-844.00,-1345.00
248,4412.00,8172.00,-11848.00,30.41,314.00,-878.00,-1759.00
249,3980.00,8212.00,-12212.00,30.46,1252.00,118.00,-670.00
250,4244.00,8036.00,-12220.00,30.51,249.00,108.00,46.00
251,4232.00,7964.00,-12032.00,30.46,211.00,90.00,276.00
252,4340.00,7924.00,-12640.00,30.46,476.00,557.00,998.00
253,4644.00,7908.00,-12164.00,30.51,-1474.00,-414.00,220.00
254,4504.00,7856.00,-12072.00,30.51,-946.00,-342.00,11.00
255,4540.00,8044.00,-12300.00,30.51,-913.00,-422.00,-311.00
256,4388.00,8000.00,-11964.00,30.51,-467.00,-717.00,-936.00
257,4160.00,8080.00,-12136.00,30.51,-581.00,-247.00,-251.00
258,4432.00,8036.00,-12096.00,30.41,-265.00,-3.00,-54.00
259,4368.00,7940.00,-12252.00,30.46,-356.00,-251.00,-277.00
260,4536.00,7976.00,-12024.00,30.46,-310.00,-573.00,-640.00
261,4300.00,8028.00,-12172.00,30.46,1347.00,-2103.00,-2183.00
262,3696.00,7936.00,-12532.00,30.51,-134.00,299.00,-582.00
263,4064.00,7868.00,-12384.00,30.41,-262.00,290.00,263.00
264,3964.00,7944.00,-12508.00,30.46,-944.00,567.00,665.00
265,4260.00,8024.00,-12252.00,30.51,-2305.00,910.00,1282.00
266,4584.00,8232.00,-11852.00,30.46,-2296.00,284.00,671.00
267,4656.00,8312.00,-12232.00,30.51,-1943.00,127.00,518.00
268,4744.00,8408.00,-11608.00,30.51,-252.00,120.00,165.00
269,4632.00,8344.00,-11916.00,30.46,717.00,206.00,594.00
270,4648.00,8244.00,-12060.00,30.51,-2318.00,-202.00,1556.00
271,5468.00,8360.00,-11548.00,30.55,-881.00,-290.00,583.00
272,4948.00,8496.00,-12280.00,30.51,-2343.00,-264.00,-399.00
273,5136.00,8616.00,-11272.00,30.55,-326.00,-339.00,-317.00
274,4840.00,8556.00,-11480.00,30.46,-334.00,-285.00,-473.00
275,5036.00,8556.00,-11600.00,30.46,-64.00,-203.00,-272.00
276,4968.00,8612.00,-11620.00,30.46,0.00,-353.00,-520.00
277,4704.00,8520.00,-11880.00,30.51,308.00,-548.00,-769.00
278,4892.00,8624.00,-12004.00,30.51,-460.00,-162.00,-197.00
279,4616.00,8460.00,-11512.00,30.41,60.00,-246.00,-430.00
280,4976.00,8440.00,-11392.00,30.37,-658.00,155.00,136.00
281,5132.00,8444.00,-11924.00,30.41,-480.00,43.00,27.00
282,4892.00,8524.00,-11672.00,30.46,-896.00,45.00,418.00
283,4792.00,8536.00,-11836.00,30.51,-1781.00,-216.00,1849.00
284,5360.00,8476.00,-11624.00,30.51,-1580.00,-843.00,953.00
285,5256.00,8684.00,-11232.00,30.51,157.00,-200.00,-458.00
286,5228.00,8688.00,-11756.00,30.60,-998.00,-281.00,-514.00
287,5148.00,8748.00,-11596.00,30.51,-535.00,-559.00,-1084.00
288,5116.00,8952.00,-11232.00,30.51,788.00,96.00,-924.00
289,4976.00,8668.00,-11484.00,30.51,-412.00,-451.00,-119.00
290,5124.00,8572.00,-11444.00,30.51,1592.00,-522.00,-516.00
291,4772.00,8712.00,-12204.00,30.51,-1325.00,-452.00,-488.00
292,5188.00,8712.00,-11472.00,30.41,-729.00,590.00,-43.00
293,5100.00,8656.00,-11764.00,30.51,-155.00,-381.00,-848.00
294,5072.00,8740.00,-11700.00,30.51,-532.00,-627.00,-1059.00
295,5308.00,8592.00,-11244.00,30.51,1894.00,-1793.00,-2978.00
296,3972.00,8404.00,-12064.00,30.46,1439.00,-1104.00,-2102.00
297,3988.00,8436.00,-12296.00,30.51,285.00,-261.00,-870.00
298,4268.00,8436.00,-12020.00,30.51,-2078.00,918.00,732.00
299,4516.00,8592.00,-11856.00,30.51,-1831.00,1193.00,1167.00
300,4944.00,8576.00,-11584.00,30.51,-1213.00,536.00,387.00
301,4792.00,8772.00,-11440.00,30.51,-1552.00,-126.00,-429.00
302,4712.00,8788.00,-11532.00,30.55,-425.00,-407.00,-399.00
303,4964.00,8704.00,-11424.00,30.46,301.00,-455.00,-525.00
304,4384.00,8764.00,-11988.00,30.46,678.00,-555.00,-974.00
305,4612.00,8560.00,-11596.00,30.46,422.00,202.00,329.00
306,4756.00,8616.00,-11968.00,30.41,-1331.00,383.00,862.00
307,4908.00,8688.00,-11696.00,30.46,-1128.00,152.00,776.00
308,5024.00,8756.00,-11736.00,30.46,-1313.00,-274.00,-184.00
309,4916.00,8692.00,-11120.00,30.51,-1989.00,-831.00,-468.00
310,4880.00,9244.00,-11196.00,30.51,113.00,-207.00,-487.00
311,4812.00,8988.00,-11116.00,30.51,-733.00,-207.00,-132.00
312,4760.00,8952.00,-11280.00,30.51,394.00,-159.00,207.00
313,4972.00,8884.00,-11648.00,30.51,378.00,37.00,606.00
314,5356.00,8872.00,-11488.00,30.41,400.00,-448.00,-188.00
315,5008.00,8772.00,-11520.00,30.51,-634.00,-237.00,-59.00
316,5112.00,8808.00,-11664.00,30.41,271.00,-222.00,-172.00
317,5000.00,8700.00,-11792.00,30.60,47.00,-379.00,-406.00
318,5024.00,8700.00,-11428.00,30.55,281.00,-694.00,-828.00
319,4228.00,8516.00,-11808.00,30.65,646.00,-1739.00,-2505.00
320,4736.00,8556.00,-11704.00,30.51,2029.00,-2167.00,-3449.00
321,3648.00,8488.00,-12532.00,30.51,602.00,-2137.00,-2888.00
322,3752.00,8312.00,-12256.00,30.46,-1392.00,-17.00,-359.00
323,3432.00,8580.00,-11932.00,30.55,340.00,156.00,-973.00
324,3572.00,8480.00,-12324.00,30.60,-791.00,239.00,-168.00
325,3720.00,8388.00,-12224.00,30.51,220.00,645.00,121.00
326,3940.00,8460.00,-11864.00,30.51,-218.00,626.00,432.00
327,4124.00,8296.00,-12204.00,30.46,-391.00,422.00,175.00
328,3984.00,8392.00,-12060.00,30.41,866.00,239.00,111.00
329,4116.00,8484.00,-12308.00,30.41,-803.00,-122.00,-212.00
330,4184.00,8304.00,-12044.00,30.51,328.00,-126.00,-104.00
331,4120.00,8272.00,-12120.00,30.51,194.00,158.00,624.00
332,4436.00,8248.00,-12388.00,30.55,-1604.00,268.00,1578.00
333,4512.00,8276.00,-12064.00,30.55,-1110.00,-165.00,536.00
334,4588.00,8424.00,-11988.00,30.55,-973.00,127.00,479.00
335,4556.00,8484.00,-12044.00,30.51,-1566.00,334.00,1366.00
336,5008.00,8480.00,-11540.00,30.46,-1102.00,65.00,1783.00
337,5160.00,8564.00,-11780.00,30.51,-922.00,-224.00,413.00
338,4976.00,8656.00,-11840.00,30.51,-577.00,-284.00,183.00
339,5016.00,8572.00,-11672.00,30.51,-832.00,-826.00,107.00
340,5052.00,8572.00,-11788.00,30.60,-1101.00,-897.00,-677.00
341,4880.00,8788.00,-11248.00,30.51,161.00,-314.00,-670.00
342,4888.00,8756.00,-11500.00,30.60,-489.00,-495.00,-669.00
343,4996.00,8676.00,-11304.00,30.51,706.00,-128.00,-148.00
344,4696.00,8716.00,-12136.00,30.51,-792.00,-28.00,566.00
345,5064.00,8516.00,-11380.00,30.46,-985.00,-1014.00,1016.00
346,5116.00,8672.00,-11584.00,30.51,-1243.00,-764.00,372.00
347,5008.00,8712.00,-11628.00,30.51,-72.00,-373.00,-365.00
348,4880.00,8648.00,-11808.00,30.51,-1148.00,-460.00,-657.00
349,5008.00,8800.00,-11560.00,30.60,-579.00,-677.00,-1129.00
350,4600.00,8840.00,-11620.00,30.60,199.00,-39.00,-555.00
351,4736.00,8840.00,-11476.00,30.51,-1104.00,67.00,-63.00
352,4680.00,8908.00,-11604.00,30.55,-547.00,-135.00,-215.00
353,4820.00,8888.00,-11560.00,30.55,-697.00,-123.00,-298.00
354,4924.00,8932.00,-11392.00,30.55,134.00,-430.00,-1084.00
355,4532.00,8828.00,-11244.00,30.55,-487.00,9.00,-1222.00
356,4492.00,8872.00,-12048.00,30.51,930.00,143.00,-662.00
357,4524.00,8896.00,-11472.00,30.55,-412.00,-293.00,-430.00
358,4700.00,8888.00,-11508.00,30.65,-483.00,-292.00,-324.00
359,4656.00,8804.00,-11348.00,30.55,-759.00,-293.00,-320.00
360,4536.00,8768.00,-11792.00,30.46,144.00,-248.00,-296.00
361,4648.00,8856.00,-11540.00,30.65,-151.00,-226.00,-161.00
362,4572.00,8800.00,-11524.00,30.46,-99.00,-219.00,-41.00
363,4784.00,8804.00,-11716.00,30.51,-152.00,-186.00,-187.00
364,4472.00,8836.00,-11680.00,30.51,386.00,-523.00,-481.00
365,4584.00,8700.00,-11860.00,30.60,-70.00,-456.00,-474.00
366,4400.00,8612.00,-11852.00,30.51,635.00,-530.00,-612.00
367,4384.00,8480.00,-12044.00,30.51,-594.00,-172.00,179.00
368,4592.00,8588.00,-11856.00,30.51,-1046.00,-226.00,36.00
369,4404.00,8572.00,-12040.00,30.55,-109.00,-450.00,-330.00
370,4540.00,8600.00,-11740.00,30.55,-536.00,-542.00,-452.00
371,4348.00,8660.00,-11880.00,30.51,-519.00,-117.00,-107.00
372,4564.00,8740.00,-12036.00,30.51,-1882.00,-152.00,-232.00
373,4584.00,8920.00,-11560.00,30.60,-208.00,-278.00,-364.00
374,4360.00,8780.00,-11736.00,30.60,109.00,-305.00,-476.00
375,4444.00,8780.00,-11532.00,30.51,397.00,-457.00,-484.00
376,4200.00,8624.00,-11804.00,30.60,1641.00,-1129.00,-1996.00
377,4020.00,8548.00,-12100.00,30.46,378.00,-262.00,-437.00
378,4208.00,8440.00,-11960.00,30.55,-414.00,-182.00,-338.00
379,4096.00,8468.00,-11632.00,30.55,48.00,-501.00,-1283.00
380,3972.00,8508.00,-11888.00,30.65,548.00,10.00,-745.00
381,3912.00,8496.00,-12220.00,30.60,-893.00,-119.00,-228.00
382,4020.00,8556.00,-12088.00,30.51,-49.00,-9.00,-74.00
383,4024.00,8552.00,-12132.00,30.55,-465.00,134.00,232.00
384,4020.00,8412.00,-12296.00,30.60,-779.00,179.00,605.00
385,4392.00,8464.00,-12020.00,30.65,-392.00,-223.00,75.00
386,4104.00,8408.00,-12080.00,30.55,-248.00,-258.00,-259.00
387,4148.00,8444.00,-11932.00,30.55,-499.00,-260.00,-279.00
388,4080.00,8500.00,-11984.00,30.55,-380.00,-131.00,-186.00
389,4372.00,8508.00,-11696.00,30.65,-370.00,-264.00,-309.00
390,4212.00,8572.00,-11824.00,30.46,-600.00,-190.00,-316.00
391,4168.00,8612.00,-12072.00,30.60,-425.00,-144.00,-230.00
392,4140.00,8472.00,-11844.00,30.51,-441.00,-170.00,-334.00
393,4220.00,8520.00,-11828.00,30.60,-302.00,-242.00,-325.00
394,4112.00,8464.00,-12060.00,30.51,-223.00,-118.00,-82.00
395,4032.00,8548.00,-11924.00,30.60,-334.00,796.00,980.00
396,4552.00,8432.00,-11804.00,30.60,-2262.00,2395.00,3894.00
397,4984.00,8436.00,-11644.00,30.60,-1653.00,336.00,2119.00
398,4904.00,8500.00,-11476.00,30.51,-588.00,-586.00,1488.00
399,5840.00,8220.00,-11524.00,30.55,270.00,-616.00,256.00
400,5808.00,8276.00,-11396.00,30.51,1735.00,-398.00,-1051.00
401,5132.00,8252.00,-11644.00,30.55,1833.00,-685.00,-2787.00
402,7360.00,8104.00,-12868.00,30.74,-2402.00,-786.00,-2438.00
403,4412.00,6504.00,-11544.00,30.41,-2420.00,144.00,-521.00
404,5052.00,10280.00,-10988.00,30.51,1702.00,1328.00,1413.00
405,5468.00,8244.00,-11776.00,30.51,2993.00,-26.00,517.00
406,5152.00,7636.00,-12296.00,30.51,4575.00,-207.00,319.00
407,4932.00,7192.00,-12824.00,30.51,847.00,216.00,423.00
408,5604.00,7304.00,-12616.00,30.51,-150.00,-1087.00,-1380.00
409,5220.00,7168.00,-12344.00,30.46,-243.00,-1554.00,-2349.00
410,4308.00,7280.00,-12804.00,30.51,-77.00,-1053.00,-1740.00
411,4628.00,7328.00,-12448.00,30.65,-978.00,454.00,94.00
412,4420.00,7228.00,-12332.00,30.51,-971.00,1286.00,747.00
413,5040.00,7344.00,-12572.00,30.60,-564.00,490.00,471.00
414,5004.00,7224.00,-12304.00,30.55,388.00,-73.00,-182.00
415,5208.00,7336.00,-12456.00,30.51,10.00,-786.00,-1100.00
416,4772.00,7256.00,-12792.00,30.60,-378.00,852.00,-279.00
417,5344.00,7224.00,-12116.00,30.51,-906.00,679.00,420.00
418,5488.00,7228.00,-12068.00,30.55,-334.00,-300.00,-237.00
419,5320.00,7236.00,-12652.00,30.69,559.00,-670.00,-732.00
420,5312.00,7068.00,-12176.00,30.60,757.00,-811.00,-805.00
421,5124.00,7044.00,-12772.00,30.60,108.00,-679.00,-513.00
422,5068.00,7024.00,-12952.00,30.65,-34.00,-541.00,-625.00
423,5024.00,7024.00,-12684.00,30.55,-663.00,-526.00,-626.00
424,5156.00,7112.00,-12760.00,30.60,-800.00,-1270.00,-1393.00
425,4916.00,7088.00,-12392.00,30.60,515.00,-2404.00,-2531.00
426,4488.00,7136.00,-12680.00,30.65,117.00,-793.00,-1487.00
427,4008.00,7000.00,-12636.00,30.55,-272.00,177.00,-521.00
428,4156.00,7004.00,-12728.00,30.65,-73.00,223.00,-424.00
429,4388.00,7016.00,-12864.00,30.60,-141.00,-102.00,-322.00
430,4288.00,7008.00,-12752.00,30.55,402.00,-411.00,-446.00
431,4304.00,7108.00,-12824.00,30.69,217.00,-614.00,-646.00
432,4156.00,6956.00,-12916.00,30.60,-983.00,240.00,151.00
433,4096.00,6984.00,-12924.00,30.51,-1052.00,683.00,1107.00
434,4420.00,7132.00,-12692.00,30.60,-1806.00,549.00,2035.00
435,4868.00,7140.00,-12844.00,30.60,-563.00,-508.00,621.00
436,5024.00,7228.00,-12492.00,30.51,-714.00,-153.00,-73.00
437,4788.00,7152.00,-12408.00,30.60,-781.00,-438.00,-669.00
438,4664.00,7348.00,-12428.00,30.60,-174.00,-546.00,-1070.00
439,4744.00,7328.00,-12648.00,30.69,-1491.00,-58.00,-192.00
440,5108.00,7472.00,-12492.00,30.69,-717.00,236.00,146.00
441,5136.00,7516.00,-12088.00,30.60,-633.00,68.00,155.00
442,4840.00,7372.00,-12400.00,30.65,-242.00,-103.00,142.00
443,5216.00,7520.00,-12556.00,30.55,-513.00,-306.00,-221.00
444,4912.00,7384.00,-12372.00,30.55,-460.00,-239.00,-369.00
445,4832.00,7468.00,-12572.00,30.55,2.00,-633.00,-1156.00
446,4720.00,7564.00,-12612.00,30.60,-216.00,-523.00,-1384.00
447,4516.00,7480.00,-12912.00,30.65,453.00,-285.00,-983.00
448,4600.00,7388.00,-12332.00,30.55,-203.00,-256.00,-715.00
449,4360.00,7288.00,-12636.00,30.65,211.00,-362.00,-338.00
450,4460.00,7248.00,-12700.00,30.65,131.00,-4.00,192.00
451,4608.00,7176.00,-12552.00,30.65,-857.00,-54.00,32.00
452,4632.00,7276.00,-12660.00,30.60,-733.00,-255.00,-268.00
453,4636.00,7332.00,-12464.00,30.51,-1114.00,-172.00,-144.00
454,4628.00,7300.00,-12504.00,30.65,92.00,-416.00,-567.00
455,4640.00,7340.00,-12688.00,30.69,494.00,-637.00,-772.00
456,4220.00,7204.00,-12748.00,30.60,703.00,-1033.00,-1226.00
457,4208.00,7104.00,-13088.00,30.65,-150.00,-117.00,200.00
458,4332.00,7128.00,-12852.00,30.65,-960.00,-108.00,649.00
459,4500.00,7184.00,-12480.00,30.55,-361.00,-557.00,-340.00
460,4372.00,7296.00,-13196.00,30.65,-1714.00,-552.00,-328.00
461,4260.00,7360.00,-12084.00,30.60,761.00,-298.00,-569.00
462,4500.00,7356.00,-12560.00,30.69,-1152.00,-14.00,-5.00
463,4172.00,7312.00,-12716.00,30.65,-168.00,47.00,138.00
464,4276.00,7432.00,-12776.00,30.60,-321.00,272.00,571.00
465,4636.00,7284.00,-12476.00,30.65,-1479.00,-36.00,620.00
466,4444.00,7496.00,-12752.00,30.55,-598.00,-262.00,-151.00
467,4636.00,7436.00,-12512.00,30.69,-598.00,-314.00,-343.00
468,4496.00,7416.00,-12672.00,30.60,413.00,-954.00,-1232.00
469,4372.00,7332.00,-12520.00,30.60,-18.00,-430.00,-299.00
470,4372.00,7348.00,-12680.00,30.69,-186.00,-939.00,-487.00
471,4252.00,7576.00,-12952.00,30.60,-1285.00,-665.00,308.00
472,4340.00,7384.00,-12712.00,30.69,-698.00,-380.00,-443.00
473,4204.00,7488.00,-12492.00,30.60,-349.00,-546.00,-662.00
474,4520.00,7756.00,-12388.00,30.60,150.00,-101.00,-935.00
475,4104.00,7356.00,-12540.00,30.60,85.00,61.00,-803.00
476,3916.00,7060.00,-12668.00,30.74,35.00,248.00,-274.00
477,4292.00,7384.00,-12608.00,30.60,7.00,553.00,469.00
478,4560.00,7364.00,-12728.00,30.69,-828.00,608.00,1009.00
479,4424.00,7328.00,-12684.00,30.65,-665.00,-52.00,119.00
480,4396.00,7436.00,-12464.00,30.65,-228.00,-523.00,-565.00
481,4284.00,7432.00,-12480.00,30.65,-533.00,-287.00,-364.00
482,4376.00,7464.00,-12648.00,30.65,-579.00,-335.00,-414.00
483,4460.00,7468.00,-12524.00,30.65,-221.00,-432.00,-665.00
484,4312.00,7476.00,-12892.00,30.65,797.00,-992.00,-1683.00
485,4628.00,7540.00,-12764.00,30.65,346.00,-1007.00,-1380.00
486,3924.00,7476.00,-12744.00,30.69,70.00,-181.00,-1415.00
487,3404.00,7348.00,-12732.00,30.65,138.00,182.00,-464.00
488,3832.00,7360.00,-12752.00,30.65,-745.00,-85.00,-163.00
489,3924.00,7240.00,-12632.00,30.65,-169.00,-140.00,-3.00
490,3948.00,7320.00,-12604.00,30.69,-8.00,-273.00,-143.00
491,4008.00,7344.00,-12964.00,30.55,-376.00,-432.00,-37.00
492,4304.00,7268.00,-12740.00,30.65,-587.00,-166.00,-283.00
493,3928.00,7260.00,-12632.00,30.65,-469.00,-615.00,-536.00
494,4328.00,7276.00,-12780.00,30.55,-1139.00,-501.00,-662.00
495,4168.00,7424.00,-12664.00,30.69,-1054.00,-33.00,-101.00
496,3604.00,7428.00,-12644.00,30.69,-532.00,24.00,215.00
497,3828.00,7404.00,-12736.00,30.69,440.00,37.00,-217.00
498,3948.00,7404.00,-12712.00,30.55,-562.00,74.00,166.00
499,4000.00,7428.00,-12632.00,30.69,-212.00,-530.00,-430.00
500,3776.00,7364.00,-12768.00,30.69,-214.00,-409.00,-403.00
501,3884.00,7348.00,-12596.00,30.69,-576.00,-210.00,-158.00
502,3892.00,7372.00,-12788.00,30.65,-1124.00,-149.00,-110.00
503,4068.00,7548.00,-12204.00,30.65,-2091.00,-228.00,-724.00
504,3740.00,7664.00,-12356.00,30.69,1277.00,90.00,-570.00
505,3856.00,7628.00,-12788.00,30.74,-1207.00,-94.00,-135.00
506,3880.00,7552.00,-12632.00,30.74,-200.00,60.00,205.00
507,4008.00,7668.00,-12500.00,30.69,-781.00,-90.00,-23.00
508,4048.00,7604.00,-12544.00,30.69,-459.00,-43.00,-34.00
509,3912.00,7564.00,-12324.00,30.65,-109.00,-130.00,-192.00
510,4028.00,7532.00,-12736.00,30.65,93.00,-200.00,12.00
511,3996.00,7488.00,-12596.00,30.69,-354.00,-139.00,349.00
512,4248.00,7528.00,-12452.00,30.60,-569.00,-45.00,355.00
513,4208.00,7532.00,-12512.00,30.65,-412.00,54.00,233.00
514,4248.00,7564.00,-12568.00,30.65,-644.00,60.00,147.00
515,4292.00,7556.00,-12568.00,30.69,-799.00,44.00,184.00
516,4128.00,7560.00,-12448.00,30.65,-1085.00,-254.00,15.00
517,4568.00,7648.00,-12284.00,30.74,-276.00,-520.00,-439.00
518,4228.00,7540.00,-12164.00,30.65,720.00,-1274.00,-1952.00
519,3684.00,7500.00,-12940.00,30.69,328.00,-890.00,-1395.00
520,3928.00,7528.00,-12508.00,30.60,-472.00,-362.00,-674.00
521,3760.00,7408.00,-12848.00,30.65,-247.00,-240.00,-257.00
522,4008.00,7524.00,-12460.00,30.65,500.00,-275.00,-510.00
523,3628.00,7372.00,-12856.00,30.65,-818.00,-291.00,454.00
524,3844.00,7592.00,-12588.00,30.65,-925.00,-212.00,624.00
525,4048.00,7528.00,-12704.00,30.65,-854.00,-372.00,-173.00
526,3720.00,7524.00,-12432.00,30.55,-521.00,-191.00,74.00
527,3892.00,7604.00,-12848.00,30.74,-1837.00,-366.00,847.00
528,4468.00,7712.00,-12220.00,30.74,-1312.00,-166.00,480.00
529,4124.00,7752.00,-12524.00,30.74,-222.00,-155.00,-213.00
530,4060.00,7736.00,-12524.00,30.74,-470.00,-176.00,-157.00
531,4128.00,7876.00,-12540.00,30.79,-539.00,-251.00,-220.00
532,4076.00,7836.00,-12488.00,30.79,-1217.00,-49.00,-122.00
533,4080.00,7996.00,-12272.00,30.60,-1333.00,-35.00,48.00
534,4156.00,8096.00,-11852.00,30.65,-1612.00,-102.00,-234.00
535,4080.00,8332.00,-12140.00,30.69,-140.00,-454.00,-823.00
536,4016.00,8260.00,-12256.00,30.79,-53.00,-360.00,-758.00
537,4048.00,8220.00,-12360.00,30.69,-75.00,-353.00,-552.00
538,4028.00,8064.00,-12108.00,30.65,194.00,-127.00,-204.00
539,3988.00,8148.00,-12396.00,30.65,-762.00,-179.00,-242.00
540,3980.00,8192.00,-12204.00,30.74,89.00,-15.00,-163.00
541,3940.00,8132.00,-12188.00,30.69,-842.00,54.00,27.00
542,4076.00,8132.00,-12156.00,30.65,-269.00,-215.00,-182.00
543,4144.00,8148.00,-12044.00,30.74,-840.00,-165.00,-152.00
544,4032.00,8156.00,-11916.00,30.69,-429.00,-269.00,-221.00
545,4136.00,8164.00,-12316.00,30.69,465.00,-254.00,-214.00
546,4044.00,8244.00,-12128.00,30.69,-242.00,-258.00,-339.00
547,4064.00,8108.00,-12292.00,30.60,-392.00,-151.00,-198.00
548,4168.00,8084.00,-12256.00,30.69,-463.00,-281.00,-270.00
549,4096.00,8160.00,-12048.00,30.79,-369.00,-196.00,-206.00
550,3884.00,8128.00,-12288.00,30.69,-268.00,-274.00,-283.00
551,4148.00,8184.00,-12296.00,30.65,-331.00,-560.00,-593.00
552,3564.00,8108.00,-12392.00,30.84,-1.00,-501.00,-740.00
553,4032.00,8088.00,-12360.00,30.69,-47.00,-290.00,-478.00
554,3948.00,8108.00,-12156.00,30.69,-546.00,-326.00,-595.00
555,3716.00,8084.00,-12212.00,30.60,47.00,79.00,96.00
556,3872.00,8040.00,-12188.00,30.69,514.00,42.00,-56.00
557,3984.00,8000.00,-12732.00,30.84,-163.00,186.00,541.00
558,3940.00,8004.00,-12444.00,30.60,199.00,-364.00,-92.00
559,4040.00,7936.00,-12676.00,30.55,-138.00,-129.00,73.00
560,4064.00,7908.00,-12484.00,30.69,-1000.00,-234.00,-299.00
561,4036.00,8044.00,-12028.00,30.74,-898.00,37.00,60.00
562,4004.00,8108.00,-12180.00,30.69,-612.00,25.00,26.00
563,4076.00,8160.00,-12104.00,30.74,-832.00,-173.00,-210.00
564,4180.00,8192.00,-12276.00,30.74,-373.00,-249.00,-359.00
565,4068.00,8172.00,-12192.00,30.65,-947.00,-183.00,-159.00
566,4188.00,8244.00,-12052.00,30.69,-288.00,-375.00,-398.00
567,4172.00,8120.00,-12040.00,30.79,917.00,-819.00,-1266.00
568,4012.00,8124.00,-12092.00,30.69,-17.00,-697.00,-1136.00
569,3820.00,8100.00,-12496.00,30.69,1313.00,-496.00,-1095.00
570,3592.00,8040.00,-12548.00,30.69,-780.00,10.00,203.00
571,3780.00,7960.00,-12428.00,30.79,259.00,-7.00,9.00
572,3820.00,7820.00,-12392.00,30.79,-56.00,-68.00,107.00
573,3776.00,7924.00,-12560.00,30.65,-809.00,-26.00,376.00
574,3884.00,7888.00,-12304.00,30.69,-1018.00,-55.00,356.00
575,3944.00,8060.00,-12356.00,30.69,-1141.00,-63.00,300.00
576,3992.00,8180.00,-12380.00,30.74,-1286.00,-30.00,112.00
577,3996.00,8188.00,-12184.00,30.74,-684.00,-189.00,-19.00
578,4080.00,8144.00,-12152.00,30.84,-866.00,-220.00,-165.00
579,3992.00,8384.00,-12016.00,30.74,-1345.00,-267.00,352.00
580,4068.00,7864.00,-12020.00,30.74,-1421.00,77.00,755.00
581,4276.00,8588.00,-11984.00,30.74,-721.00,-142.00,479.00
582,4172.00,8536.00,-11788.00,30.74,-42.00,-198.00,432.00
583,4368.00,8384.00,-11972.00,30.69,490.00,131.00,643.00
584,4484.00,8300.00,-11772.00,30.65,-810.00,-268.00,756.00
585,4708.00,8292.00,-12040.00,30.79,-361.00,-258.00,-357.00
586,4456.00,8280.00,-12112.00,30.74,-652.00,-303.00,-495.00
587,4396.00,8368.00,-12036.00,30.65,-77.00,-578.00,-798.00
588,4384.00,8332.00,-11920.00,30.74,669.00,-583.00,-1135.00
589,4168.00,8192.00,-12036.00,30.74,792.00,-519.00,-1319.00
590,3956.00,8140.00,-12444.00,30.79,438.00,-315.00,-864.00
591,4196.00,8052.00,-12448.00,30.74,635.00,-391.00,-940.00
592,4044.00,8028.00,-12492.00,30.84,-927.00,-487.00,-1150.00
593,3640.00,8064.00,-12152.00,30.69,-255.00,-285.00,-885.00
594,3816.00,8136.00,-12056.00,30.69,-309.00,-17.00,-368.00
595,3820.00,8144.00,-12108.00,30.79,-283.00,-218.00,-275.00
596,3916.00,7980.00,-12168.00,30.79,-85.00,70.00,149.00
597,3860.00,8024.00,-12408.00,30.69,-729.00,-95.00,152.00
598,4040.00,8088.00,-12196.00,30.74,-20.00,-170.00,-13.00
599,4096.00,8036.00,-12076.00,30.74,-631.00,-104.00,57.00
600,3984.00,8104.00,-12408.00,30.69,-226.00,150.00,827.00
601,4156.00,8048.00,-12180.00,30.69,-507.00,-31.00,842.00
602,4320.00,8108.00,-12344.00,30.65,-607.00,-103.00,962.00
603,4204.00,8184.00,-12356.00,30.84,-1944.00,-428.00,277.00
604,4376.00,8184.00,-11456.00,30.74,-2139.00,-1229.00,-341.00
605,4260.00,8532.00,-12012.00,30.69,-447.00,-378.00,-356.00
606,4008.00,8436.00,-11988.00,30.60,-272.00,-363.00,-415.00
607,4328.00,8400.00,-11992.00,30.74,-134.00,-401.00,-646.00
608,4188.00,8380.00,-11976.00,30.74,657.00,-558.00,-1156.00
609,3868.00,8308.00,-12176.00,30.74,414.00,-374.00,-859.00
610,3896.00,8300.00,-12168.00,30.84,-86.00,-411.00,-790.00
611,3812.00,8188.00,-11924.00,30.74,403.00,-436.00,-697.00
612,3692.00,8112.00,-12120.00,30.74,496.00,-149.00,-178.00
613,3700.00,8028.00,-12684.00,30.74,730.00,66.00,230.00
614,3936.00,7928.00,-12340.00,30.79,-552.00,22.00,611.00
615,3960.00,8012.00,-12352.00,30.69,-827.00,-574.00,-757.00
616,3908.00,7948.00,-12196.00,30.65,-884.00,-156.00,56.00
617,3804.00,8088.00,-12272.00,30.79,-2.00,-370.00,-453.00
618,3872.00,8116.00,-12456.00,30.84,-156.00,-103.00,-165.00
619,3872.00,8048.00,-12312.00,30.79,-499.00,-263.00,-326.00
620,3864.00,8048.00,-12232.00,30.79,-207.00,-181.00,-195.00
621,3932.00,8016.00,-12124.00,30.79,-271.00,-102.00,-104.00
622,3936.00,7964.00,-12292.00,30.74,-593.00,-138.00,-63.00
623,3844.00,8040.00,-12328.00,30.79,-454.00,-257.00,-298.00
624,3912.00,8092.00,-12248.00,30.74,-610.00,-303.00,-338.00
625,4028.00,8116.00,-12240.00,30.65,-570.00,-286.00,-375.00
626,3884.00,8232.00,-12052.00,30.84,-555.00,-478.00,-695.00
627,3904.00,8256.00,-12200.00,30.84,-559.00,-261.00,-570.00
628,3792.00,8216.00,-12112.00,30.84,-767.00,-471.00,-820.00
629,3868.00,8344.00,-12272.00,30.84,-975.00,-1016.00,-924.00
630,3352.00,8616.00,-12468.00,30.79,-705.00,-2604.00,-2769.00
631,3176.00,10612.00,-12700.00,30.74,-1598.00,-4070.00,-6594.00
632,1404.00,8420.00,-12132.00,30.74,-1517.00,-2661.00,-8740.00
633,436.00,8548.00,-11812.00,30.79,-110.00,-305.00,-4620.00
634,680.00,8780.00,-11696.00,30.79,-2147.00,56.00,-1453.00
635,-304.00,10036.00,-11480.00,30.79,242.00,-1297.00,-2766.00
636,-1504.00,11236.00,-11592.00,30.84,1305.00,-462.00,-8196.00
637,-1960.00,8548.00,-12136.00,30.74,-444.00,159.00,-8664.00
638,-1576.00,8084.00,-11956.00,30.74,-284.00,2736.00,-4254.00
639,-2072.00,8164.00,-12100.00,30.69,-1520.00,831.00,-472.00
640,-892.00,7500.00,-12740.00,30.74,1595.00,-632.00,495.00
641,-1036.00,8740.00,-11952.00,30.84,-2797.00,-158.00,2099.00
642,-476.00,9288.00,-11644.00,30.79,-477.00,16.00,743.00
643,-712.00,9108.00,-11960.00,30.93,-163.00,-107.00,-358.00
644,-692.00,8676.00,-12056.00,30.84,41.00,-206.00,-355.00
645,-1092.00,8952.00,-12424.00,30.74,-456.00,-358.00,-215.00
646,-848.00,8836.00,-12068.00,30.74,-354.00,-637.00,-398.00
647,-1000.00,8880.00,-12272.00,30.69,-352.00,-48.00,-143.00
648,-688.00,8584.00,-12068.00,30.69,34.00,-164.00,-92.00
649,-848.00,8652.00,-11948.00,30.84,-239.00,-313.00,-372.00
650,-968.00,8696.00,-12260.00,30.84,-72.00,-250.00,-406.00
651,-856.00,8704.00,-12228.00,30.84,-272.00,-216.00,-259.00
652,-956.00,8628.00,-12180.00,30.84,-335.00,-20.00,-235.00
653,-948.00,8680.00,-12124.00,30.74,-181.00,-232.00,-374.00
654,-1060.00,8644.00,-12392.00,30.84,-204.00,-46.00,-246.00
655,-908.00,8748.00,-12288.00,30.84,-143.00,-359.00,-330.00
656,-924.00,8680.00,-12304.00,30.84,-263.00,-40.00,-137.00
657,-932.00,8708.00,-12380.00,30.74,-328.00,-166.00,-202.00
658,-776.00,8440.00,-12144.00,30.84,-441.00,248.00,3.00
659,-744.00,8708.00,-12416.00,30.79,-309.00,-329.00,-257.00
660,-792.00,8572.00,-12228.00,30.79,-409.00,-91.00,-189.00
661,-860.00,8572.00,-12160.00,30.79,-356.00,-137.00,-194.00
662,-844.00,8664.00,-12168.00,30.79,-351.00,-214.00,-231.00
663,-724.00,8552.00,-12180.00,30.79,-260.00,-198.00,-192.00
664,-820.00,8564.00,-12280.00,30.69,-354.00,-202.00,-182.00
665,-724.00,8532.00,-12292.00,30.74,-359.00,-51.00,-184.00
666,-692.00,8620.00,-12188.00,30.79,-353.00,-186.00,-224.00
667,-720.00,8772.00,-12252.00,30.69,-363.00,-205.00,-234.00
668,-708.00,8656.00,-12224.00,30.84,-336.00,-223.00,-247.00
669,-892.00,8576.00,-12212.00,30.74,-351.00,-189.00,-196.00
670,-648.00,8636.00,-12212.00,30.84,-639.00,-214.00,-282.00
671,-804.00,8588.00,-12304.00,30.84,-299.00,-304.00,-287.00
672,-696.00,8600.00,-12056.00,30.88,-214.00,-212.00,-235.00
673,-816.00,8712.00,-12144.00,30.79,-303.00,-379.00,-245.00
674,-836.00,8616.00,-12260.00,30.79,-292.00,-134.00,-142.00
675,-928.00,8888.00,-12652.00,30.88,-336.00,-107.00,-158.00
676,-824.00,8660.00,-12252.00,30.84,-374.00,-272.00,-212.00
677,-800.00,8608.00,-12340.00,30.84,-334.00,-225.00,-214.00
678,-708.00,8496.00,-12140.00,30.88,-360.00,-166.00,-217.00
679,-752.00,8664.00,-12332.00,30.69,-357.00,-295.00,-254.00
680,-780.00,8552.00,-12168.00,30.79,-416.00,-281.00,-232.00
681,-816.00,8660.00,-12440.00,30.84,-430.00,-91.00,-150.00
682,-664.00,8636.00,-12152.00,30.88,-282.00,-132.00,-177.00
683,-728.00,8564.00,-12252.00,30.84,-344.00,-252.00,-193.00
684,-896.00,8684.00,-12260.00,30.84,-268.00,-366.00,-270.00
685,-832.00,8520.00,-12148.00,30.93,-313.00,-190.00,-216.00
686,-712.00,8436.00,-12196.00,30.84,-278.00,-312.00,-253.00
687,-896.00,8648.00,-12312.00,30.74,-365.00,-255.00,-231.00
688,-664.00,8620.00,-12296.00,30.84,-392.00,-444.00,-353.00
689,-848.00,8576.00,-12084.00,30.79,-310.00,-266.00,-267.00
690,-780.00,8544.00,-12172.00,30.79,-319.00,-219.00,-215.00
691,-844.00,8716.00,-12516.00,30.79,-335.00,-132.00,-186.00
692,-824.00,8484.00,-12164.00,30.88,-344.00,-190.00,-234.00
693,-832.00,8696.00,-12396.00,30.79,-375.00,-249.00,-239.00
694,-904.00,8628.00,-12276.00,30.79,-375.00,-378.00,-237.00
695,-848.00,8476.00,-12124.00,30.84,-415.00,-135.00,-168.00
696,-1008.00,8732.00,-12476.00,30.84,-403.00,-228.00,-174.00
697,-836.00,8480.00,-12072.00,30.74,-346.00,-124.00,-192.00
698,-876.00,8632.00,-12452.00,30.74,-415.00,-244.00,-158.00
699,-856.00,8504.00,-12040.00,30.88,-300.00,-145.00,-203.00
700,-920.00,8532.00,-12212.00,30.79,-452.00,-223.00,-180.00
701,-704.00,8716.00,-12316.00,30.79,-323.00,-122.00,-187.00
702,-820.00,8604.00,-12204.00,30.79,-353.00,-273.00,-262.00
703,-808.00,8656.00,-12384.00,30.69,-290.00,-207.00,-265.00
704,-776.00,8584.00,-12160.00,30.88,-369.00,-198.00,-221.00
705,-820.00,8624.00,-12160.00,30.84,-278.00,-268.00,-291.00
706,-848.00,8752.00,-12304.00,30.84,-355.00,-207.00,-220.00
707,-844.00,8540.00,-12148.00,30.84,-328.00,-191.00,-190.00
708,-784.00,8632.00,-12388.00,30.74,-355.00,-163.00,-193.00
709,-860.00,8696.00,-12256.00,30.74,-315.00,-245.00,-224.00
710,-848.00,8536.00,-12168.00,30.84,-379.00,-174.00,-189.00
711,-736.00,8628.00,-12360.00,30.84,-353.00,-166.00,-185.00
712,-676.00,8520.00,-12208.00,30.88,-335.00,-237.00,-226.00
713,-824.00,8612.00,-12460.00,30.79,-328.00,-228.00,-235.00
714,-792.00,8528.00,-12272.00,30.88,-340.00,-293.00,-215.00
715,-848.00,8616.00,-12396.00,30.79,-297.00,-268.00,-222.00
716,-868.00,8536.00,-12192.00,30.88,-343.00,-255.00,-199.00
717,-928.00,8620.00,-12344.00,30.79,-390.00,-211.00,-189.00
718,-876.00,8660.00,-12244.00,30.88,-295.00,-221.00,-253.00
719,-936.00,8492.00,-12236.00,30.93,-306.00,-230.00,-276.00
720,-760.00,8576.00,-12276.00,30.74,-283.00,-152.00,-224.00
721,-944.00,8628.00,-12260.00,30.74,-272.00,-313.00,-261.00
722,-976.00,8520.00,-12276.00,30.84,-322.00,-141.00,-162.00
723,-952.00,8532.00,-12204.00,30.88,-350.00,-205.00,-192.00
724,-864.00,8456.00,-12108.00,30.79,-330.00,-106.00,-183.00
725,-808.00,8544.00,-12348.00,30.79,-321.00,-192.00,-193.00
726,-816.00,8624.00,-12192.00,30.88,-348.00,-204.00,-180.00
727,-828.00,8552.00,-12248.00,30.79,-305.00,-227.00,-211.00
728,-900.00,8596.00,-12244.00,30.84,-399.00,-206.00,-170.00
729,-880.00,8564.00,-12284.00,30.93,-364.00,-202.00,-212.00
730,-820.00,8600.00,-12224.00,30.93,-364.00,-214.00,-203.00
731,-796.00,8512.00,-12272.00,30.88,-361.00,-169.00,-217.00
732,-784.00,8584.00,-12232.00,30.79,-378.00,-291.00,-210.00
733,-820.00,8572.00,-12328.00,30.79,-303.00,-135.00,-209.00
734,-844.00,8552.00,-12272.00,30.79,-382.00,-229.00,-201.00
735,-804.00,8648.00,-12284.00,30.88,-375.00,-78.00,-148.00
736,-844.00,8548.00,-12168.00,30.79,-322.00,-247.00,-240.00
737,-788.00,8432.00,-12276.00,30.84,-413.00,-128.00,-161.00
738,-728.00,8672.00,-12320.00,30.84,-386.00,-150.00,-176.00
739,-880.00,8532.00,-12156.00,30.74,-322.00,-182.00,-200.00
740,-808.00,8640.00,-12376.00,30.84,-371.00,-150.00,-211.00
741,-748.00,8552.00,-12288.00,30.84,-261.00,-285.00,-276.00
742,-912.00,8532.00,-12492.00,30.84,-326.00,-240.00,-224.00
743,-836.00,8500.00,-12256.00,30.88,-320.00,-198.00,-227.00
744,-780.00,8572.00,-12236.00,30.88,-333.00,-219.00,-226.00
745,-884.00,8520.00,-12468.00,30.88,-338.00,-187.00,-210.00
746,-880.00,8536.00,-12316.00,30.84,-323.00,-313.00,-294.00
747,-852.00,8484.00,-12160.00,30.84,-357.00,-249.00,-257.00
748,-860.00,8516.00,-12348.00,30.74,-287.00,-223.00,-202.00
749,-760.00,8584.00,-12148.00,30.84,-324.00,-206.00,-246.00
750,-912.00,8492.00,-12332.00,30.88,-336.00,-197.00,-221.00
751,-884.00,8536.00,-12296.00,30.88,-379.00,-245.00,-211.00
752,-976.00,8532.00,-12160.00,30.98,-352.00,-138.00,-174.00
753,-912.00,8612.00,-12268.00,30.79,-334.00,-332.00,-245.00
754,-892.00,8584.00,-12348.00,30.93,-367.00,-141.00,-182.00
755,-824.00,8468.00,-12320.00,30.93,-364.00,-275.00,-234.00
756,-788.00,8544.00,-12304.00,30.84,-411.00,-96.00,-150.00
757,-852.00,8548.00,-12296.00,30.93,-324.00,-279.00,-211.00
758,-820.00,8544.00,-12312.00,30.84,-323.00,-231.00,-227.00
759,-848.00,8508.00,-12264.00,30.88,-371.00,-244.00,-212.00
760,-892.00,8520.00,-12224.00,30.79,-328.00,-199.00,-190.00
761,-756.00,8420.00,-12240.00,30.98,-343.00,-194.00,-191.00
762,-900.00,8532.00,-12432.00,30.93,-377.00,-258.00,-195.00
763,-836.00,8420.00,-12208.00,30.84,-361.00,-161.00,-218.00
764,-936.00,8568.00,-12340.00,30.84,-319.00,-207.00,-234.00
765,-856.00,8628.00,-12288.00,30.98,-377.00,-260.00,-213.00
766,-868.00,8456.00,-12204.00,30.88,-358.00,-175.00,-186.00
767,-964.00,8600.00,-12260.00,30.88,-365.00,-229.00,-193.00
768,-900.00,8536.00,-12284.00,30.84,-407.00,-201.00,-210.00
769,-784.00,8488.00,-12268.00,30.93,-333.00,-275.00,-252.00
770,-808.00,8584.00,-12256.00,30.84,-373.00,-172.00,-186.00
771,-904.00,8600.00,-12296.00,30.88,-319.00,-250.00,-218.00
772,-808.00,8608.00,-12400.00,30.88,-351.00,-188.00,-206.00
773,-788.00,8520.00,-12344.00,30.88,-337.00,-131.00,-186.00
774,-744.00,8568.00,-12316.00,30.88,-399.00,-182.00,-165.00
775,-796.00,8532.00,-12192.00,30.88,-357.00,-230.00,-213.00
776,-844.00,8468.00,-12352.00,30.88,-389.00,-143.00,-180.00
777,-860.00,8548.00,-12256.00,30.93,-375.00,-188.00,-188.00
778,-764.00,8560.00,-12344.00,31.02,-362.00,-156.00,-156.00
779,-784.00,8572.00,-12344.00,30.93,-330.00,-149.00,-174.00
780,-696.00,8564.00,-12260.00,30.84,-368.00,-160.00,-197.00
781,-760.00,8612.00,-12376.00,30.98,-325.00,-214.00,-212.00
782,-740.00,8588.00,-12256.00,30.98,-352.00,-107.00,-173.00
783,-740.00,8464.00,-12256.00,30.88,-339.00,-222.00,-193.00
784,-784.00,8500.00,-12196.00,30.79,-2¹
Sample,aX,aY,az,Temp,gX,gY,gz
1,-148.00,8580.00,-12088.00,30.98,-889.00,16.00,-168.00
2,-316.00,9056.00,-12000.00,30.98,-518.00,36.00,-215.00
3,-360.00,9056.00,-12076.00,31.02,-417.00,88.00,-162.00
4,-352.00,9004.00,-11996.00,30.98,-526.00,-141.00,-289.00
5,-436.00,9332.00,-11760.00,30.93,-407.00,-95.00,-373.00
6,-360.00,9008.00,-12052.00,30.88,-263.00,-151.00,-378.00
7,-448.00,9016.00,-12040.00,30.93,-408.00,-162.00,-255.00
8,-344.00,9012.00,-11852.00,30.88,-500.00,-110.00,-69.00
9,-388.00,9036.00,-12112.00,30.98,-386.00,-155.00,-131.00
10,-316.00,9160.00,-12028.00,30.84,-267.00,-134.00,-220.00
11,-196.00,9112.00,-12172.00,30.93,-563.00,-263.00,-233.00
12,-236.00,8996.00,-12120.00,30.93,-984.00,-79.00,13.00
13,-336.00,9312.00,-11876.00,30.88,-2331.00,-47.00,461.00
14,-1032.00,9048.00,-11540.00,30.88,-2743.00,-536.00,-310.00
15,304.00,9728.00,-11412.00,30.88,-2149.00,-182.00,411.00
16,-112.00,9868.00,-10888.00,30.98,-1374.00,257.00,491.00
17,-52.00,10244.00,-11080.00,30.84,-1845.00,437.00,597.00
18,-184.00,10188.00,-11392.00,30.88,-536.00,169.00,-554.00
19,-92.00,10084.00,-11300.00,30.88,51.00,270.00,-1130.00
20,-116.00,9404.00,-11208.00,31.02,-409.00,376.00,-770.00
21,-88.00,9940.00,-11520.00,30.93,-807.00,-117.00,-329.00
22,48.00,10104.00,-11232.00,30.79,-932.00,-12.00,-123.00
23,16.00,10260.00,-11072.00,30.93,-1089.00,-78.00,-123.00
24,60.00,10304.00,-11252.00,31.02,-357.00,-288.00,-259.00
25,-124.00,10192.00,-11044.00,30.88,-397.00,-336.00,-263.00
26,108.00,10240.00,-11096.00,30.88,-132.00,-155.00,-229.00
27,12.00,10276.00,-11292.00,30.88,-498.00,-437.00,-592.00
28,-76.00,10088.00,-10904.00,30.98,-512.00,-293.00,-533.00
29,-236.00,10084.00,-11164.00,30.98,-197.00,-326.00,-329.00
30,-72.00,10200.00,-11124.00,30.98,-435.00,-351.00,-256.00
31,-148.00,10272.00,-11136.00,30.98,-195.00,-293.00,-253.00
32,-120.00,10200.00,-11276.00,30.98,-357.00,-145.00,-214.00
33,-208.00,10256.00,-11136.00,30.93,-574.00,-212.00,-233.00
34,-288.00,10620.00,-10936.00,30.93,-903.00,-115.00,-282.00
35,-100.00,10480.00,-11120.00,30.93,-260.00,-24.00,-371.00
36,-152.00,10008.00,-10960.00,30.93,-372.00,-191.00,-125.00
37,-164.00,10228.00,-10920.00,30.88,-320.00,-70.00,46.00
38,-128.00,10352.00,-11012.00,30.93,18.00,-62.00,31.00
39,-108.00,10160.00,-11224.00,30.93,-1.00,-162.00,-65.00
40,-80.00,10232.00,-10992.00,30.88,-63.00,-371.00,-245.00
41,-40.00,10180.00,-11208.00,30.98,12.00,-389.00,-255.00
42,-144.00,10144.00,-11180.00,30.93,-125.00,-364.00,-424.00
43,-60.00,10160.00,-11320.00,30.93,-2