146.00                                                                          
280,-5048.00,2792.0,-1                                                         
Sample,aX,aY,az,Temp,gX,gY,gz                                                   
1,-3632.00,2140.00,-12836.00,29.09,-263.00,319.00,589.00                        
2,-3940.00,3332.00,-13652.00,28.95,-969.00,461.00,759.00                        
3,-3956.00,3092.00,-14352.00,29.05,-277.00,618.00,541.00                        
4,-4032.00,2628.00,-14168.00,29.05,-1006.00,37.00,442.00                        
5,-3988.00,2480.00,-13916.00,28.95,-271.00,240.00,658.00                        
6,-3408.00,2680.00,-14076.00,28.95,302.00,416.00,1168.00                        
7,-3088.00,2736.00,-13380.00,29.00,355.00,1089.00,534.00                        
8,-2492.00,2812.00,-14192.00,29.00,503.00,-1117.00,-256.00                      
9,-2604.00,2460.00,-14304.00,29.05,-372.00,-2386.00,1694.00                     
10,-3768.00,2376.00,-14116.00,29.09,-611.00,-1394.00,1508.00                    
11,-3868.00,3480.00,-13744.00,29.09,-567.00,-295.00,826.00                      
12,-3924.00,2392.00,-13948.00,29.00,-897.00,-348.00,89.00                       
13,-3844.00,3300.00,-13820.00,28.95,222.00,76.00,-915.00                        
14,-3156.00,4068.00,-14184.00,28.95,-107.00,-348.00,-1174.00                    
15,-3768.00,2796.00,-14080.00,28.95,-1312.00,-1590.00,-744.00                   
16,-4564.00,1992.00,-13828.00,28.95,-469.00,-406.00,-80.00                      
17,-4324.00,2380.00,-14156.00,29.00,-1178.00,-407.00,-540.00                    
18,-3436.00,2996.00,-14340.00,28.95,988.00,2120.00,229.00                       
19,-2328.00,3500.00,-13224.00,29.00,492.00,1193.00,204.00                       
20,-2076.00,3444.00,-14604.00,29.00,-693.00,-594.00,512.00                      
21,-3532.00,3344.00,-14164.00,29.00,-1290.00,-927.00,370.00                     
22,-3168.00,2300.00,-13904.00,28.95,835.00,-1229.00,-1444.00                    
23,-4416.00,2672.00,-13868.00,28.95,-602.00,10.00,-536.00                       
24,-3928.00,2624.00,-14396.00,28.95,700.00,-322.00,-365.00                      
25,-2788.00,2752.00,-14324.00,29.00,-797.00,-660.00,-277.00                     
26,-3100.00,2976.00,-13496.00,28.91,642.00,-284.00,-493.00                      
27,-4036.00,2652.00,-13992.00,29.05,-137.00,-137.00,268.00                      
28,-3944.00,2308.00,-14204.00,29.00,-32.00,343.00,762.00                        
29,-3860.00,2620.00,-14188.00,29.00,-1077.00,-1124.00,-44.00                    
30,                                                                             
-3800.00,2940.00,-14204.00,28.95,-2205.00,-2470.00,-315.00
31,-4020.00,2844.00,-13640.00,28.95,-2641.00,-2226.00,-2082.00
32,-4444.00,2484.00,-14580.00,29.00,-2589.00,-1414.00,-1861.00
33,-5016.00,4064.00,-12884.00,29.00,-1903.00,-1684.00,-1976.00
34,-5556.00,3900.00,-13316.00,29.00,-180.00,61.00,-577.00
35,-4592.00,3244.00,-13472.00,28.95,1227.00,254.00,42.00
36,-4532.00,3772.00,-14108.00,28.91,-31.00,444.00,462.00
37,-4308.00,3872.00,-13268.00,29.00,479.00,540.00,84.00
38,-4124.00,3452.00,-13784.00,28.95,1697.00,549.00,-736.00
39,-4232.00,3332.00,-13340.00,29.00,1509.00,1547.00,53.00
40,-4524.00,2328.00,-14320.00,28.95,627.00,510.00,433.00
41,-4052.00,2228.00,-13992.00,28.95,251.00,-295.00,463.00
42,-4540.00,2048.00,-13936.00,28.95,517.00,-89.00,314.00
43,-4356.00,2696.00,-13824.00,29.05,79.00,-285.00,-432.00
44,-3824.00,2140.00,-14024.00,29.00,-394.00,-345.00,-631.00
45,-4544.00,2280.00,-13776.00,28.95,-565.00,427.00,-38.00
46,-4180.00,2372.00,-13748.00,29.00,93.00,2433.00,766.00
47,-4664.00,1884.00,-14036.00,29.00,9.00,1400.00,-80.00
48,-3988.00,2256.00,-14260.00,28.91,-141.00,440.00,-492.00
49,-3240.00,2056.00,-14348.00,28.91,-1101.00,-626.00,-296.00
50,-3764.00,2340.00,-14200.00,29.00,-480.00,-207.00,-329.00
51,-3160.00,2896.00,-14256.00,29.00,119.00,299.00,80.00
52,-3172.00,3160.00,-14312.00,29.00,-627.00,-460.00,-77.00
53,-3388.00,2540.00,-13812.00,28.95,-585.00,-1640.00,-1464.00
54,-4208.00,2112.00,-13976.00,28.95,-923.00,-1085.00,-735.00
55,-3972.00,2412.00,-14000.00,29.00,-788.00,104.00,-114.00
56,-3808.00,2324.00,-13860.00,28.95,649.00,1271.00,216.00
57,-3360.00,3660.00,-14348.00,28.91,-1638.00,-1215.00,-575.00
58,-3824.00,2336.00,-14144.00,29.00,-787.00,-1080.00,-462.00
59,-5548.00,1000.00,-15280.00,29.00,-1873.00,-311.00,36.00
60,-3520.00,624.00,-18264.00,28.91,-1570.00,-1568.00,1605.00
61,-4796.00,1572.00,-17172.00,28.91,-6401.00,-5900.00,4180.00
62,-5532.00,5584.00,-12828.00,29.00,-10877.00,-8797.00,6543.00
63,-7008.00,6236.00,-8128.00,29.00,-18460.00,-9434.00,5028.00
64,-4368.00,5644.00,-7268.00,29.00,-2805.00,-3925.00,4755.00
65,-5716.00,9252.00,-8272.00,28.91,2722.00,1091.00,1016.00
66,-5752.00,5500.00,-9940.00,28.95,4065.00,3448.00,-1125.00
67,-5928.00,9628.00,-9340.00,29.00,12143.00,9745.00,-8614.00
68,-4028.00,5388.00,-16060.00,28.81,11637.00,17999.00,-6493.00
69,-2220.00,3464.00,-19548.00,28.91,16722.00,8173.00,-1907.00
70,-1516.00,1876.00,-17708.00,29.00,5342.00,-1562.00,607.00
71,-2316.00,408.00,-15044.00,28.95,6391.00,-2365.00,628.00
72,-2812.00,-784.00,-15784.00,29.00,7188.00,-390.00,1299.00
73,-2840.00,-1452.00,-13996.00,29.00,8963.00,292.00,-86.00
74,-2400.00,-2312.00,-15064.00,29.00,7876.00,-146.00,989.00
75,-2956.00,-4048.00,-12852.00,28.91,4384.00,-525.00,3537.00
76,-2716.00,-4388.00,-13992.00,28.95,4044.00,-2100.00,1859.00
77,-3948.00,-4184.00,-14132.00,28.95,-1606.00,-5312.00,-1665.00
78,-4824.00,-5416.00,-13132.00,28.91,0.00,-6811.00,-1254.00
79,-5532.00,-3392.00,-13024.00,28.91,-65.00,-7187.00,-2057.00
80,-6744.00,-3312.00,-12476.00,28.91,-801.00,-6384.00,-3754.00
81,-7336.00,-3956.00,-12964.00,28.91,-6059.00,-6592.00,-4927.00
82,-7060.00,-4860.00,-12048.00,28.95,-4266.00,-5203.00,-4486.00
83,-5852.00,-5080.00,-13816.00,28.91,-2339.00,-4963.00,-1858.00
84,-6504.00,-7552.00,-10108.00,28.95,-1373.00,-3944.00,107.00
85,-6832.00,-7416.00,-8728.00,28.95,-1354.00,-1362.00,5091.00
86,-5824.00,-2844.00,-9896.00,28.95,-8596.00,1190.00,8452.00
87,-5216.00,-2504.00,-10176.00,29.00,-5455.00,4201.00,9239.00
88,-5440.00,3068.00,-11952.00,28.91,-16778.00,135.00,10332.00
89,-5824.00,5296.00,-11948.00,28.91,-20766.00,-347.00,6043.00
90,-5848.00,9100.00,-10788.00,29.00,-7207.00,-663.00,5797.00
91,-3724.00,9028.00,-9724.00,29.00,-7692.00,52.00,5060.00
92,-3860.00,8128.00,-8940.00,28.91,-9932.00,2122.00,4228.00
93,-3400.00,9548.00,-9824.00,29.00,-10855.00,-3022.00,7836.00
94,-5540.00,13920.00,-8316.00,28.91,-9085.00,-2611.00,6648.00
95,-4400.00,17664.00,-6980.00,29.00,-2520.00,-2699.00,-3122.00
96,-6992.00,17756.00,-4824.00,28.91,-1489.00,-581.00,-5168.00
97,-5660.00,11608.00,-2700.00,29.00,9582.00,2964.00,-7216.00
98,-6604.00,11400.00,-7524.00,28.91,13406.00,9363.00,-7442.00
99,-7136.00,6892.00,-10888.00,28.91,17084.00,10262.00,-5811.00
100,-6760.00,5288.00,-14660.00,28.81,12641.00,7713.00,-5355.00
101,-5320.00,660.00,-15180.00,28.95,5754.00,4384.00,-5106.00
102,-4160.00,-116.00,-16764.00,28.95,3463.00,1957.00,-2654.00
103,-3576.00,2068.00,-14464.00,29.05,807.00,-835.00,-563.00
104,-3792.00,2500.00,-15536.00,28.91,-283.00,-1769.00,459.00
105,-4164.00,2488.00,-14392.00,28.91,-1629.00,-978.00,-2039.00
106,-5060.00,1740.00,-13948.00,29.00,-2671.00,-745.00,-2204.00
107,-5712.00,2804.00,-13816.00,28.86,2923.00,463.00,-1372.00
108,-5492.00,3216.00,-13416.00,28.91,-351.00,-769.00,-1318.00
109,-5056.00,3012.00,-13332.00,28.86,-1036.00,-1426.00,-676.00
110,-4948.00,1992.00,-14364.00,28.86,-1857.00,-421.00,-1141.00
111,-5172.00,2620.00,-13548.00,28.91,-240.00,-1172.00,-410.00
112,-5304.00,2144.00,-13200.00,28.95,-1616.00,-1827.00,367.00
113,-5920.00,2564.00,-13380.00,28.86,-1196.00,-1541.00,1023.00
114,-5712.00,3492.00,-13016.00,28.91,657.00,-1627.00,1840.00
115,-5624.00,3520.00,-13964.00,28.95,1411.00,-1481.00,317.00
116,-6636.00,3652.00,-13664.00,28.95,4949.00,-3480.00,318.00
117,-5428.00,1384.00,-12228.00,28.91,3364.00,-2145.00,-516.00
118,-6076.00,1132.00,-12848.00,28.91,450.00,165.00,1851.00
119,-6636.00,2432.00,-13212.00,28.95,-1012.00,1685.00,2030.00
120,-7044.00,3244.00,-13440.00,28.86,-1032.00,1187.00,710.00
121,-5724.00,2296.00,-13584.00,28.91,-482.00,46.00,-153.00
122,-6348.00,2308.00,-13308.00,29.00,-215.00,-286.00,181.00
123,-5564.00,2080.00,-12696.00,28.86,-1846.00,727.00,1283.00
124,-4672.00,3604.00,-13780.00,28.95,354.00,2726.00,2582.00
125,-4440.00,3004.00,-14148.00,28.81,982.00,2183.00,1189.00
126,-5436.00,1448.00,-13760.00,28.95,502.00,1202.00,-1678.00
127,-5092.00,1908.00,-12812.00,28.86,-312.00,693.00,730.00
128,-3980.00,524.00,-13752.00,28.91,-603.00,226.00,70.00
129,-4864.00,2052.00,-12672.00,28.91,-4025.00,-719.00,1872.00
130,-4404.00,1632.00,-14268.00,28.81,-1645.00,135.00,1315.00
131,-5524.00,3964.00,-13800.00,28.91,-11647.00,-3474.00,761.00
132,-5092.00,4724.00,-12232.00,28.91,-2240.00,-960.00,663.00
133,-4876.00,4524.00,-13360.00,28.91,3321.00,1716.00,723.00
134,-4892.00,5300.00,-13740.00,28.91,4689.00,1179.00,1043.00
135,-5068.00,5040.00,-12236.00,28.91,1581.00,344.00,82.00
136,-4612.00,3744.00,-13388.00,28.86,2108.00,798.00,-282.00
137,-4456.00,2504.00,-13164.00,28.91,720.00,752.00,-17.00
138,-4472.00,3464.00,-14348.00,28.81,-1020.00,-237.00,1082.00
139,-4052.00,3676.00,-14432.00,28.81,-898.00,-1036.00,1550.00
140,-3660.00,2300.00,-13016.00,28.91,-498.00,-1141.00,2690.00
141,-4480.00,5200.00,-13264.00,28.91,-5890.00,-2834.00,3207.00
142,-4056.00,5468.00,-13532.00,28.86,-3887.00,-2519.00,1485.00
143,-4668.00,4876.00,-13004.00,28.86,-5624.00,-2429.00,-2750.00
144,-6136.00,5360.00,-11004.00,28.91,-4713.00,575.00,-4238.00
145,-5244.00,5892.00,-12704.00,28.91,5139.00,2182.00,288.00
146,-4384.00,5592.00,-14352.00,28.95,5789.00,1629.00,321.00
147,-5004.00,4752.00,-13696.00,28.81,-618.00,-1577.00,-308.00
148,-5172.00,5464.00,-12476.00,28.91,-862.00,-427.00,-1184.00
149,-4800.00,5044.00,-12880.00,28.86,-564.00,4696.00,-5293.00
150,-5008.00,4952.00,-13352.00,28.86,2218.00,4795.00,-2636.00
151,-3648.00,3768.00,-13668.00,28.95,379.00,2384.00,-2045.00
152,-2552.00,2984.00,-13888.00,28.91,3216.00,1668.00,-437.00
153,-3812.00,4384.00,-14200.00,28.91,3183.00,-265.00,170.00
154,-3576.00,2568.00,-14480.00,28.86,4042.00,1116.00,-355.00
155,-3268.00,1484.00,-13256.00,28.86,1837.00,394.00,-1354.00
156,-3192.00,2244.00,-14588.00,28.86,1177.00,925.00,-851.00
157,-3144.00,1836.00,-15276.00,28.81,26.00,159.00,-636.00
158,-3024.00,2196.00,-14568.00,28.81,-49.00,-357.00,269.00
159,-3292.00,2340.00,-13872.00,28.81,-1356.00,-1046.00,-438.00
160,-2976.00,2492.00,-15920.00,28.91,208.00,-578.00,-468.00
161,-3560.00,1596.00,-15136.00,28.95,-119.00,575.00,389.00
162,-3384.00,2340.00,-12840.00,28.81,-1087.00,-1261.00,-333.00
163,-3184.00,3032.00,-14764.00,28.86,-1284.00,-1850.00,-975.00
164,-3128.00,760.00,-14800.00,28.86,-1621.00,-1648.00,1421.00
165,-3672.00,2100.00,-14592.00,28.77,-3280.00,-1663.00,3415.00
166,-3860.00,2660.00,-14672.00,28.81,-6151.00,-1207.00,3317.00
167,-4496.00,4996.00,-14508.00,28.81,-3128.00,258.00,3258.00
168,-4348.00,5924.00,-12256.00,28.91,2537.00,2215.00,867.00
169,-2936.00,4660.00,-13016.00,28.86,3927.00,2715.00,-989.00
170,-2248.00,2788.00,-14192.00,28.86,2827.00,2553.00,-745.00
171,-3196.00,3376.00,-12828.00,28.86,-2675.00,-1482.00,1193.00
172,-3500.00,3768.00,-13012.00,28.86,-2708.00,-211.00,-362.00
173,-2236.00,2776.00,-13524.00,28.86,2632.00,1820.00,-76.00
174,-2020.00,3492.00,-13656.00,28.86,1149.00,1252.00,-546.00
175,-1824.00,2276.00,-13820.00,28.81,4346.00,2625.00,-542.00
176,-156.00,1420.00,-19292.00,28.91,4232.00,593.00,884.00
177,-2116.00,1704.00,-14324.00,28.86,-1153.00,-1938.00,-225.00
178,-2076.00,1508.00,-14092.00,28.77,-127.00,306.00,-296.00
179,-1696.00,2520.00,-17508.00,28.77,-456.00,107.00,-6.00
180,-2596.00,2472.00,-12844.00,28.86,-2229.00,-2255.00,-1026.00
181,-1852.00,2336.00,-14148.00,28.81,-2344.00,-2389.00,-800.00
182,-2280.00,2480.00,-14812.00,28.91,-608.00,-414.00,-496.00
183,-3276.00,2848.00,-14700.00,28.91,-2073.00,-720.00,-522.00
184,-3700.00,3276.00,-14924.00,28.91,2.00,-501.00,-1128.00
185,-4192.00,3460.00,-13512.00,28.95,1527.00,25.00,-2982.00
186,-3788.00,3308.00,-14008.00,28.81,728.00,2502.00,-4289.00
187,-2296.00,340.00,-14772.00,28.86,3453.00,4214.00,-4055.00
188,-916.00,-100.00,-14012.00,28.86,3120.00,1375.00,-2710.00
189,-284.00,672.00,-14200.00,28.81,1732.00,1290.00,-1262.00
190,580.00,172.00,-14096.00,28.81,956.00,108.00,-733.00
191,664.00,500.00,-15072.00,28.91,912.00,-463.00,-1305.00
192,-1116.00,144.00,-14560.00,28.91,-1674.00,-922.00,-1966.00
193,-2268.00,-552.00,-15104.00,28.81,-99.00,1289.00,-1193.00
194,-1692.00,-888.00,-15768.00,28.81,400.00,1307.00,-436.00
195,-912.00,840.00,-15172.00,28.95,-583.00,-516.00,702.00
196,-1500.00,756.00,-15020.00,28.91,-272.00,-653.00,107.00
197,-1392.00,-52.00,-14664.00,28.81,-543.00,-650.00,96.00
198,-988.00,-208.00,-14720.00,28.86,-68.00,-548.00,-265.00
199,-1856.00,412.00,-14056.00,28.81,-1078.00,-242.00,143.00
200,-1312.00,392.00,-14600.00,28.77,-650.00,1458.00,-251.00
201,-1140.00,-276.00,-15004.00,28.77,19.00,-65.00,-75.00
202,-1116.00,88.00,-14868.00,28.86,-756.00,384.00,178.00
203,-1032.00,836.00,-14976.00,28.77,-321.00,334.00,141.00
204,-936.00,76.00,-14764.00,28.81,-252.00,-55.00,-114.00
205,-1060.00,252.00,-15068.00,28.81,-415.00,-400.00,-55.00
206,-1108.00,240.00,-14416.00,28.77,-986.00,-547.00,223.00
207,-908.00,408.00,-14848.00,28.91,-868.00,489.00,-411.00
208,-668.00,424.00,-14964.00,28.81,44.00,843.00,-358.00
209,-892.00,704.00,-15136.00,28.81,-491.00,302.00,-881.00
210,-880.00,444.00,-14832.00,28.81,-511.00,-152.00,-848.00
211,-708.00,392.00,-14748.00,28.86,-207.00,316.00,-640.00
212,-804.00,256.00,-14868.00,28.95,-137.00,290.00,-331.00
213,-692.00,340.00,-14372.00,28.81,-317.00,187.00,203.00
214,-792.00,680.00,-15068.00,28.81,-254.00,127.00,102.00
215,-464.00,488.00,-15080.00,28.81,-460.00,-39.00,60.00
216,-636.00,704.00,-14980.00,28.86,-373.00,-252.00,-141.00
217,-580.00,404.00,-14688.00,28.81,-382.00,-122.00,-29.00
218,-208.00,528.00,-14824.00,28.81,-410.00,100.00,51.00
219,-628.00,548.00,-14952.00,28.86,22.00,146.00,-382.00
220,-364.00,296.00,-15160.00,28.81,59.00,-88.00,-356.00
221,-240.00,488.00,-15188.00,28.91,-773.00,-281.00,-313.00
222,-764.00,460.00,-14740.00,28.81,-821.00,-567.00,-310.00
223,-504.00,472.00,-14672.00,28.86,-227.00,-422.00,-445.00
224,-544.00,364.00,-14636.00,28.81,-470.00,-297.00,-332.00
225,-540.00,660.00,-14676.00,28.77,-513.00,-569.00,9.00
226,-624.00,788.00,-14556.00,28.77,-531.00,-356.00,4.00
227,-768.00,748.00,-14836.00,28.81,-373.00,-167.00,-155.00
228,-740.00,640.00,-14780.00,28.77,-611.00,-152.00,-231.00
229,-580.00,788.00,-14784.00,28.72,-263.00,-1.00,-165.00
230,-604.00,680.00,-14748.00,28.81,-270.00,-153.00,-188.00,19.00,-370.00
360,-972.00,716.00,-14940.00,28.77,-334.00,-330.00,-259.00
361,-456.00,620.00,-15008.00,28.72,-290.00,-108.00,-41.00
362,-588.00,744.00,-14672.00,28.72,-469.00,-368.00,61.00
363,-684.00,528.00,-14880.00,28.81,-279.00,-79.00,228.00
364,-612.00,1004.00,-15004.00,28.81,-28.00,311.00,97.00
365,-584.00,476.00,-14976.00,28.72,-271.00,-123.00,-48.00
366,-480.00,548.00,-14864.00,28.62,-202.00,-20.00,-180.00
367,-376.00,624.00,-14792.00,28.72,-446.00,-94.00,-161.00
368,-624.00,696.00,-14864.00,28.77,-468.00,-212.00,-82.00
369,-528.00,628.00,-14880.00,28.77,-260.00,-148.00,-102.00
370,-476.00,656.00,-14916.00,28.62,-321.00,-122.00,-50.00
371,-556.00,728.00,-14860.00,28.81,-436.00,-198.00,-236.00
372,-488.00,776.00,-14968.00,28.86,-319.00,-42.00,-116.00
373,-516.00,696.00,-14948.00,28.77,-404.00,-221.00,-101.00
374,-444.00,592.00,-14928.00,28.81,-349.00,-168.00,-162.00
375,-468.00,420.00,-14860.00,28.86,-148.00,-162.00,28.00
376,-448.00,720.00,-14960.00,28.77,-526.00,-344.00,-14.00
377,-704.00,680.00,-14796.00,28.67,-439.00,-196.00,-62.00
378,-548.00,588.00,-14744.00,28.81,-338.00,-67.00,-130.00
379,-576.00,568.00,-14824.00,28.72,-362.00,-100.00,-173.00
380,-572.00,644.00,-14788.00,28.77,-482.00,-244.00,-127.00
381,-516.00,636.00,-14828.00,28.81,-390.00,-258.00,-159.00
382,-448.00,636.00,-14880.00,28.72,-324.00,-181.00,-124.00
383,-456.00,688.00,-14868.00,28.67,-368.00,-204.00,-205.00
384,-444.00,736.00,-14676.00,28.72,-314.00,-213.00,-221.00
385,-552.00,752.00,-14704.00,28.77,-436.00,-268.00,-60.00
386,-532.00,652.00,-14872.00,28.67,-426.00,-194.00,-155.00
387,-500.00,704.00,-14856.00,28.62,-430.00,-246.00,-53.00
388,-548.00,772.00,-14748.00,28.72,-310.00,-211.00,-198.00
389,-424.00,664.00,-15004.00,28.72,-365.00,-173.00,-144.00
390,-600.00,692.00,-14860.00,28.72,-358.00,-230.00,-147.00
391,-568.00,704.00,-14620.00,28.72,-394.00,-216.00,-40.00
392,-540.00,728.00,-14972.00,28.77,-386.00,-120.00,-177.00
393,-644.00,808.00,-14932.00,28.77,-330.00,-183.00,-156.00
394,-652.00,768.00,-14792.00,28.81,-267.00,-220.00,-165.00
395,-560.00,732.00,-14828.00,28.67,-342.00,-168.00,-156.00
396,-428.00,588.00,-14824.00,28.62,-375.00,-199.00,-70.00
397,-480.00,792.00,-14836.00,28.62,-297.00,-208.00,-147.00
398,-512.00,668.00,-14932.00,28.67,-288.00,-146.00,-167.00
399,-620.00,748.00,-14792.00,28.72,-352.00,-233.00,-203.00
400,-476.00,816.00,-14884.00,28.67,-335.00,-204.00,-83.00
401,-512.00,776.00,-14744.00,28.77,-306.00?
Sample,aX,aY,az,Temp,gX,gY,gz
1,-512.00,808.00,-14876.00,28.67,-356.00,-206.00,-169.00
2,-632.00,752.00,-14916.00,28.67,-416.00,-248.00,-118.00
3,-488.00,680.00,-14684.00,28.62,-403.00,-255.00,-168.00
4,-512.00,624.00,-14808.00,28.67,-406.00,-264.00,-151.00
5,-556.00,600.00,-14904.00,28.72,-397.00,-210.00,-145.00
6,-512.00,624.00,-14876.00,28.58,-312.00,-169.00,-152.00
7,-592.00,724.00,-14864.00,28.72,-386.00,-198.00,-157.00
8,-508.00,620.00,-14804.00,28.72,-343.00,-141.00,-175.00
9,-604.00,860.00,-14728.00,28.67,-456.00,-264.00,-174.00
10,-512.00,704.00,-14820.00,28.81,-296.00,-121.00,-160.00
11,-568.00,760.00,-14676.00,28.72,-398.00,-195.00,-67.00
12,-564.00,708.00,-14820.00,28.67,-363.00,-165.00,-203.00
13,-544.00,916.00,-14744.00,28.67,-421.00,-145.00,-136.00
14,-548.00,700.00,-14816.00,28.77,-275.00,-157.00,-132.00
15,-528.00,720.00,-14928.00,28.72,-406.00,-240.00,-134.00
16,-464.00,752.00,-14616.00,28.72,-319.00,-147.00,-140.00
17,-408.00,724.00,-14820.00,28.67,-260.00,-120.00,-71.00
18,-532.00,672.00,-15000.00,28.67,-339.00,-204.00,-153.00
19,-424.00,640.00,-14824.00,28.77,-359.00,-227.00,-164.00
20,-648.00,740.00,-14932.00,28.77,-304.00,-208.00,-149.00
21,-508.00,784.00,-14688.00,28.72,-307.00,-180.00,-194.00
22,-384.00,748.00,-14800.00,28.72,-334.00,-166.00,-144.00
23,-584.00,748.00,-14756.00,28.67,-300.00,-131.00,-153.00
24,-532.00,812.00,-14924.00,28.67,-268.00,-131.00,-34.00
25,-568.00,772.00,-14856.00,28.67,-269.00,-143.00,-66.00
26,-336.00,948.00,-14800.00,28.72,-258.00,-39.00,-87.00
27,-572.00,656.00,-14716.00,28.77,-194.00,81.00,95.00
28,-716.00,976.00,-14860.00,28.72,-115.00,54.00,-142.00
29,-424.00,960.00,-15060.00,28.62,219.00,-210.00,-29.00
30,-332.00,496.00,-14916.00,28.67,-302.00,-355.00,81.00
31,-316.00,520.00,-14764.00,28.67,-450.00,-387.00,-148.00
32,-296.00,528.00,-15012.00,28.81,-559.00,-348.00,-21.00
33,-600.00,744.00,-14636.00,28.72,-482.00,-246.00,-157.00
34,-580.00,764.00,-14888.00,28.72,-297.00,33.00,-303.00
35,-100.00,572.00,-14912.00,28.72,-404.00,-111.00,-192.00
36,-376.00,560.00,-14800.00,28.62,-270.00,-115.00,-62.00
37,-476.00,432.00,-14864.00,28.62,-154.00,-153.00,-45.00
38,-112.00,-344.00,-14760.00,28.77,-451.00,-243.00,-60.00
39,-408.00,536.00,-14728.00,28.67,-293.00,-157.00,-130.00
40,-360.00,496.00,-14956.00,28.72,-458.00,-214.00,-189.00
41,-368.00,536.00,-14784.00,28.62,-432.00,-158.00,-145.00
42,-316.00,660.00,-14848.00,28.72,-480.00,-224.00,-205.00
43,-524.00,652.00,-14744.00,28.67,-426.00,-158.00,-156.00
44,-400.00,600.00,-15080.00,28.72,-462.00,-199.00,-217.00
45,-416.00,508.00,-14944.00,28.72,-306.00,-151.00,-158.00
46,-420.00,596.00,-14880.00,28.67,-391.00,-204.00,-160.00
47,-420.00,640.00,-14796.00,28.77,-312.00,-179.00,-165.00
48,-332.00,656.00,-14916.00,28.67,-405.00,-194.00,-138.00
49,-480.00,584.00,-14936.00,28.62,-400.00,-199.00,-103.00
50,-452.00,612.00,-14912.00,28.62,-486.00,-293.00,-168.00
51,-364.00,556.00,-14836.00,28.67,-349.00,-221.00,-190.00
52,-344.00,648.00,-14824.00,28.67,-319.00,-182.00,-119.00
53,-376.00,660.00,-14936.00,28.62,-305.00,-145.00,-181.00
54,-480.00,636.00,-14816.00,28.67,-311.00,-178.00,-131.00
55,-276.00,612.00,-14860.00,28.67,-406.00,-205.00,-150.00
56,-460.00,568.00,-14896.00,28.77,-338.00,-176.00,-115.00
57,-372.00,512.00,-14984.00,28.62,-289.00,-179.00,-109.00
58,-396.00,608.00,-14924.00,28.72,-283.00,-170.00,-132.00
59,-364.00,548.00,-15008.00,28.58,-459.00,-226.00,-203.00
60,-392.00,548.00,-14828.00,28.67,-364.00,-194.00,-197.00
61,-432.00,624.00,-14788.00,28.67,-424.00,-257.00,-168.00
62,-280.00,580.00,-14840.00,28.53,-351.00,-181.00,-176.00
63,-352.00,608.00,-14824.00,28.72,-344.00,-219.00,-149.00
64,-428.00,676.00,-14840.00,28.62,-276.00,-154.00,-194.00
65,-380.00,572.00,-14840.00,28.67,-323.00,-178.00,-152.00
66,-416.00,580.00,-14876.00,28.67,-355.00,-204.00,-137.00
67,-348.00,644.00,-14940.00,28.72,-374.00,-217.00,-165.00
68,-380.00,600.00,-14828.00,28.72,-403.00,-172.00,-141.00
69,-508.00,584.00,-14852.00,28.67,-313.00,-163.00,-151.00
70,-436.00,776.00,-14868.00,28.67,-378.00,-234.00,-171.00
71,-480.00,440.00,-14956.00,28.67,-321.00,-164.00,-175.00
72,-448.00,652.00,-14720.00,28.72,-325.00,-184.00,-139.00
73,-560.00,628.00,-14884.00,28.72,-347.00,-213.00,-190.00
74,-384.00,624.00,-14812.00,28.62,-353.00,-227.00,-97.00
75,-268.00,740.00,-14752.00,28.62,-358.00,-179.00,-164.00
76,-372.00,596.00,-14900.00,28.67,-320.00,-165.00,-168.00
77,-328.00,632.00,-14836.00,28.77,-402.00,-179.00,-176.00
78,-440.00,624.00,-14776.00,28.67,-328.00,-187.00,-150.00
79,-448.00,640.00,-14712.00,28.72,-363.00,-206.00,-161.00
80,-380.00,712.00,-14860.00,28.62,-341.00,-184.00,-161.00
81,-416.00,640.00,-14932.00,28.58,-341.00,-218.00,-143.00
82,-332.00,556.00,-14804.00,28.67,-310.00,-147.00,-125.00
83,-512.00,660.00,-14948.00,28.67,-268.00,-142.00,-170.00
84,-428.00,592.00,-14896.00,28.72,-224.00,-92.00,-212.00
85,-344.00,632.00,-14972.00,28.62,-328.00,-179.00,-164.00
86,-332.00,616.00,-14868.00,28.72,-241.00,-146.00,-180.00
87,-384.00,520.00,-14896.00,28.62,-409.00,-193.00,-126.00
88,-424.00,768.00,-14808.00,28.67,-340.00,-163.00,-165.00
89,-420.00,644.00,-15056.00,28.62,-413.00,-180.00,-129.00
90,-404.00,656.00,-15052.00,28.62,-354.00,-200.00,-162.00
91,-344.00,532.00,-14704.00,28.67,-323.00,-168.00,-212.00
92,-476.00,576.00,-14892.00,28.67,-379.00,-164.00,-172.00
93,-464.00,616.00,-14952.00,28.72,-302.00,-154.00,-152.00
94,-448.00,624.00,-14956.00,28.72,-403.00,-201.00,-124.00
95,-320.00,580.00,-14804.00,28.77,-344.00,-141.00,-138.00
96,-236.00,628.00,-14996.00,28.67,-301.00,-174.00,-175.00
97,-372.00,516.00,-14884.00,28.58,-290.00,-178.00,-177.00
98,-340.00,568.00,-14868.00,28.62,-361.00,-219.00,-125.00
99,-344.00,528.00,-14792.00,28.62,-387.00,-241.00,-190.00
100,-468.00,684.00,-14852.00,28.62,-404.00,-245.00,-138.00
101,-516.00,588.00,-14812.00,28.67,-443.00,-234.00,-138.00
102,-492.00,584.00,-14876.00,28.62,-336.00,-184.00,-151.00
103,-472.00,660.00,-14784.00,28.62,-409.00,-200.00,-121.00
104,-384.00,640.00,-14940.00,28.67,-342.00,-193.00,-175.00
105,-404.00,664.00,-14740.00,28.72,-417.00,-196.00,-102.00
106,-448.00,584.00,-14868.00,28.67,-358.00,-213.00,-153.00
107,-456.00,608.00,-14852.00,28.72,-380.00,-232.00,-140.00
108,-416.00,688.00,-15012.00,28.62,-288.00,-149.00,-177.00
109,-440.00,736.00,-14908.00,28.67,-365.00,-215.00,-112.00
110,-296.00,668.00,-14828.00,28.72,-345.00,-200.00,-192.00
111,-456.00,652.00,-14628.00,28.58,-340.00,-186.00,-181.00
112,-392.00,640.00,-14828.00,28.62,-365.00,-209.00,-140.00
113,-440.00,636.00,-14856.00,28.67,-396.00,-199.00,-168.00
114,-416.00,644.00,-14792.00,28.77,-321.00,-191.00,-133.00
115,-436.00,696.00,-14996.00,28.81,-340.00,-165.00,-158.00
116,-440.00,644.00,-14956.00,28.67,-364.00,-178.00,-130.00
117,-396.00,552.00,-14928.00,28.62,-296.00,-171.00,-138.00
118,-396.00,660.00,-14704.00,28.67,-363.00,-190.00,-136.00
119,-388.00,672.00,-14708.00,28.67,-369.00,-171.00,-235.00
120,-404.00,616.00,-14760.00,28.62,-449.00,-253.00,-143.00
121,-472.00,612.00,-14864.00,28.67,-284.00,-149.00,-146.00
122,-424.00,672.00,-14792.00,28.72,-359.00,-189.00,-112.00
123,-576.00,684.00,-14824.00,28.62,-295.00,-199.00,-213.00
124,-376.00,748.00,-14888.00,28.77,-260.00,-175.00,-213.00
125,-756.00,592.00,-14616.00,28.62,-334.00,-185.00,-57.00
126,-384.00,380.00,-14900.00,28.67,-395.00,-339.00,0.00
127,-336.00,848.00,-14800.00,28.62,144.00,-70.00,-155.00
128,-464.00,592.00,-14964.00,28.72,117.00,121.00,-70.00
129,-460.00,1964.00,-15052.00,28.72,524.00,526.00,-236.00
130,144.00,640.00,-14616.00,28.72,1597.00,576.00,301.00
131,-404.00,396.00,-14972.00,28.62,665.00,-525.00,763.00
132,-172.00,-148.00,-13988.00,28.72,467.00,-494.00,202.00
133,-72.00,-60.00,-14468.00,28.67,-1658.00,2052.00,-283.00
134,-504.00,-1308.00,-15676.00,28.58,180.00,-642.00,-194.00
135,128.00,988.00,-15072.00,28.67,-637.00,265.00,67.00
136,972.00,1216.00,-15532.00,28.62,1378.00,1361.00,-527.00
137,448.00,-536.00,-13932.00,28.67,-260.00,-673.00,290.00
138,-824.00,-1164.00,-13608.00,28.58,254.00,2415.00,-1095.00
139,300.00,-412.00,-14344.00,28.67,-1254.00,-1495.00,144.00
140,692.00,464.00,-15688.00,28.62,-608.00,276.00,-409.00
141,-1012.00,-336.00,-14288.00,28.62,614.00,-1648.00,75.00
142,204.00,1340.00,-15852.00,28.67,-796.00,1347.00,-305.00
143,-596.00,-1184.00,-15232.00,28.62,-174.00,-1845.00,-531.00
144,632.00,648.00,-15720.00,28.72,-1757.00,-330.00,297.00
145,-912.00,-180.00,-14976.00,28.72,813.00,-1071.00,-151.00
146,556.00,68.00,-13980.00,28.72,-59.00,611.00,41.00
147,716.00,-580.00,-18112.00,28.72,-1323.00,-1386.00,-564.00
148,284.00,208.00,-14244.00,28.62,-1134.00,-616.00,396.00
149,740.00,1236.00,-15008.00,28.67,-596.00,505.00,-643.00
150,28.00,-316.00,-14420.00,28.72,-634.00,-1007.00,34.00
151,176.00,804.00,-15140.00,28.67,-1254.00,691.00,-937.00
152,-180.00,-228.00,-15176.00,28.67,-756.00,-1443.00,-566.00
153,-44.00,360.00,-14936.00,28.67,-584.00,-1418.00,-1217.00
154,-460.00,508.00,-14460.00,28.72,2048.00,1775.00,-657.00
155,464.00,-500.00,-14972.00,28.67,745.00,-607.00,348.00
156,-120.00,32.00,-14824.00,28.58,1605.00,-802.00,-860.00
157,-560.00,-672.00,-14740.00,28.58,-764.00,-1021.00,-455.00
158,-416.00,480.00,-14808.00,28.58,-3321.00,-2632.00,-320.00
159,-1232.00,844.00,-14008.00,28.62,-1688.00,945.00,438.00
160,-888.00,2116.00,-17848.00,28.67,-8248.00,-465.00,1053.00
161,-32.00,260.00,-15108.00,28.67,-5314.00,-3085.00,795.00
162,68.00,1648.00,-14056.00,28.67,-3425.00,-2023.00,-46.00
163,-804.00,1948.00,-13492.00,28.62,1251.00,1325.00,410.00
164,-1712.00,2856.00,-14740.00,28.67,2786.00,589.00,-241.00
165,448.00,1700.00,-14684.00,28.72,2784.00,1903.00,222.00
166,-932.00,552.00,-14272.00,28.67,1348.00,-1225.00,79.00
167,212.00,1348.00,-15376.00,28.67,574.00,755.00,-490.00
168,-1076.00,588.00,-16432.00,28.67,2609.00,-101.00,584.00
169,356.00,1536.00,-13928.00,28.72,96.00,1282.00,673.00
170,-948.00,156.00,-14560.00,28.62,-651.00,-1224.00,-369.00
171,156.00,436.00,-15640.00,28.58,-1554.00,276.00,154.00
172,-568.00,580.00,-15140.00,28.58,897.00,-850.00,111.00
173,-72.00,1260.00,-16596.00,28.67,-89.00,524.00,-405.00
174,44.00,360.00,-14472.00,28.58,-1684.00,-919.00,280.00
175,-1248.00,316.00,-15496.00,28.67,739.00,425.00,-346.00
176,-168.00,12.00,-14360.00,28.62,400.00,99.00,203.00
177,-1224.00,516.00,-16068.00,28.58,2.00,-1069.00,-343.00
178,264.00,640.00,-14332.00,28.58,-1455.00,-337.00,110.00
179,-428.00,1108.00,-16780.00,28.72,1612.00,-525.00,-175.00
180,-372.00,588.00,-13928.00,28.67,-1258.00,1115.00,-162.00
181,-504.00,-724.00,-14784.00,28.72,-1442.00,-1964.00,-629.00
182,368.00,564.00,-16160.00,28.62,287.00,652.00,-502.00
183,92.00,544.00,-13700.00,28.72,-539.00,-1460.00,-243.00
184,-676.00,1264.00,-19664.00,28.62,225.00,-598.00,-636.00
185,-208.00,404.00,-13768.00,28.62,-1170.00,-397.00,706.00
186,112.00,1640.00,-18232.00,28.67,670.00,-1284.00,-277.00
187,-24.00,1484.00,-14540.00,28.62,-643.00,844.00,-198.00
188,780.00,-1100.00,-15872.00,28.62,-978.00,-484.00,-750.00
189,-900.00,1460.00,-15480.00,28.62,104.00,-543.00,-21.00
190,488.00,1104.00,-14000.00,28.62,-1363.00,310.00,-446.00
191,-96.00,-496.00,-16904.00,28.67,-685.00,-824.00,-659.00
192,-204.00,796.00,-14232.00,28.53,-1219.00,-286.00,479.00
193,-584.00,432.00,-15316.00,28.62,101.00,-1214.00,-615.00
194,640.00,1620.00,-14664.00,28.67,-695.00,1838.00,-686.00
195,-388.00,300.00,-14192.00,28.53,-441.00,-1523.00,-55.00
196,-52.00,748.00,-15936.00,28.67,1264.00,765.00,-448.00
197,-688.00,752.00,-12852.00,28.53,-810.00,-222.00,287.00
198,-704.00,1808.00,-19092.00,28.67,-215.00,-38.00,-509.00
199,1484.00,-236.00,-14884.00,28.62,11.00,683.00,-187.00
200,-24.00,148.00,-13328.00,28.72,-812.00,-467.00,-517.00
201,48.00,612.00,-19180.00,28.62,-298.00,-1321.00,-767.00
202,684.00,-612.00,-14156.00,28.62,-1155.00,-501.00,400.00
203,-584.00,-756.00,-14316.00,28.62,1897.00,-1412.00,-96.00
204,-1272.00,484.00,-14152.00,28.67,2802.00,1999.00,-677.00
205,564.00,-612.00,-14408.00,28.62,-1745.00,-962.00,-134.00
206,-588.00,-476.00,-14804.00,28.58,1795.00,-549.00,-1005.00
207,160.00,-436.00,-17464.00,28.53,1021.00,640.00,-585.00
208,424.00,1060.00,-13100.00,28.67,-6029.00,416.00,-2160.00
209,-188.00,-276.00,-14572.00,28.62,1976.00,58.00,-885.00
210,-224.00,-156.00,-17492.00,28.62,686.00,67.00,258.00
211,1272.00,168.00,-14144.00,28.62,-4526.00,635.00,-1779.00
212,-72.00,476.00,-13260.00,28.67,362.00,-1183.00,-579.00
213,248.00,-568.00,-15832.00,28.62,-708.00,-823.00,-535.00
214,1320.00,-340.00,-14504.00,28.67,-3973.00,-670.00,63.00
215,-572.00,824.00,-14596.00,28.67,2341.00,-1924.00,-14.00
216,1572.00,208.00,-16072.00,28.62,263.00,2309.00,1048.00
217,-244.00,-220.00,-13260.00,28.53,-2875.00,-510.00,-730.00
218,-488.00,460.00,-13212.00,28.72,-430.00,-1539.00,248.00
219,-948.00,684.00,-16876.00,28.58,3100.00,1099.00,-705.00
220,368.00,-352.00,-13856.00,28.58,-3913.00,-1943.00,702.00
221,972.00,2544.00,-20228.00,28.67,3822.00,-122.00,176.00
222,-1036.00,-400.00,-14452.00,28.67,61.00,266.00,-34.00
223,388.00,-820.00,-13660.00,28.67,-4197.00,539.00,-1864.00
224,-92.00,-1336.00,-19184.00,28.53,3804.00,-552.00,-762.00
225,1396.00,-1648.00,-14904.00,28.58,38.00,741.00,-714.00
226,588.00,184.00,-13712.00,28.67,-4636.00,-1176.00,39.00
227,352.00,-836.00,-17168.00,28.62,3476.00,-562.00,-913.00
228,816.00,-244.00,-15348.00,28.62,-127.00,1817.00,-136.00
229,-72.00,-128.00,-15140.00,28.67,-4225.00,-1517.00,-366.00
230,344.00,804.00,-17372.00,28.58,3144.00,-982.00,-466.00
231,1952.00,1404.00,-15988.00,28.67,3174.00,2502.00,86.00
232,-220.00,-1316.00,-14084.00,28.62,-1774.00,-2098.00,259.00
233,-3332.00,424.00,-13808.00,28.62,1283.00,992.00,-746.00
234,212.00,-1460.00,-15064.00,28.62,776.00,-658.00,-781.00
235,1200.00,-988.00,-14676.00,28.67,-5108.00,-601.00,-196.00
236,300.00,160.00,-16292.00,28.62,4341.00,-1081.00,-511.00
237,1296.00,580.00,-14688.00,28.62,2687.00,2200.00,-124.00
238,-16.00,-1000.00,-14576.00,28.58,-6787.00,-2030.00,110.00
239,196.00,2344.00,-16508.00,28.62,4253.00,-1083.00,89.00
240,1716.00,1752.00,-15688.00,28.62,1827.00,1798.00,-290.00
241,-96.00,-552.00,-13628.00,28.62,-5956.00,-3319.00,1682.00
242,-1776.00,-1388.00,-14872.00,28.58,1526.00,2153.00,804.00
243,164.00,-932.00,-13208.00,28.67,4226.00,-914.00,-825.00
244,44.00,-1992.00,-15748.00,28.67,1505.00,619.00,-35.00
245,-1420.00,-976.00,-15224.00,28.67,7361.00,-2340.00,1901.00
246,-860.00,2200.00,-13144.00,28.67,544.00,-1918.00,1023.00
247,-60.00,-4628.00,-15448.00,28.62,128.00,-1885.00,4917.00
248,2396.00,-4924.00,-15424.00,28.72,-1498.00,3413.00,-2345.00
249,-1132.00,-2480.00,-13868.00,28.62,-3472.00,-2726.00,932.00
250,1152.00,516.00,-15176.00,28.58,-4058.00,-1365.00,705.00
251,-952.00,-80.00,-15432.00,28.53,-3571.00,2340.00,-6397.00
252,-360.00,-4080.00,-15184.00,28.58,3178.00,2747.00,-3529.00
253,812.00,-3240.00,-14768.00,28.67,-3704.00,-2379.00,1029.00
254,672.00,1936.00,-18012.00,28.58,4538.00,2498.00,-974.00
255,1056.00,-2624.00,-13124.00,28.62,-3248.00,2183.00,-3172.00
256,-4.00,-1908.00,-12660.00,28.62,-8466.00,-2144.00,659.00
257,2128.00,3336.00,-19888.00,28.62,5878.00,14.00,-736.00
258,1064.00,-632.00,-13384.00,28.72,-840.00,1446.00,-1169.00
259,-92.00,-2812.00,-15360.00,28.72,-5177.00,-1429.00,-380.00
260,-120.00,1612.00,-16968.00,28.62,4171.00,-1319.00,-535.00
261,1832.00,16.00,-14720.00,28.67,-1363.00,2880.00,-795.00
262,-376.00,-3388.00,-15336.00,28.62,-3968.00,-2688.00,-198.00
263,-3764.00,-596.00,-13624.00,28.53,1321.00,545.00,-447.00
264,824.00,-1284.00,-10872.00,28.62,-1391.00,-928.00,-21.00
265,-152.00,-452.00,-15616.00,28.58,-1655.00,-2689.00,616.00
266,1232.00,-2240.00,-13912.00,28.58,-658.00,1718.00,-375.00
267,252.00,-272.00,-12752.00,28.62,466.00,-1319.00,-113.00
268,-236.00,2532.00,-18880.00,28.58,-534.00,-437.00,101.00
269,-436.00,-120.00,-12316.00,28.53,-846.00,-200.00,-24.00
270,-1040.00,-1028.00,-14816.00,28.62,4707.00,-1541.00,-751.00
271,96.00,-908.00,-15104.00,28.67,645.00,1823.00,467.00
272,-412.00,-2856.00,-17464.00,28.62,3256.00,1084.00,-1859.00
273,-912.00,-728.00,-14668.00,28.62,-12542.00,-700.00,-1785.00
274,-508.00,960.00,-15328.00,28.62,2086.00,-1726.00,-916.00
275,228.00,1224.00,-16228.00,28.62,-1263.00,265.00,109.00
276,-1260.00,-4472.00,-11368.00,28.62,442.00,0.00,-48.00
277,604.00,-20.00,-13144.00,28.62,960.00,174.00,-690.00
278,-424.00,-1628.00,-17928.00,28.62,-1209.00,-3161.00,-134.00
279,1984.00,-620.00,-15296.00,28.72,-5026.00,1018.00,550.00
280,-232.00,68.00,-15080.00,28.67,4215.00,-2146.00,-549.00
281,428.00,-924.00,-19152.00,28.62,-777.00,70.00,-36.00
282,848.00,268.00,-14996.00,28.58,-6084.00,-383.00,-462.00
283,-1208.00,2160.00,-15748.00,28.62,2883.00,-1425.00,-940.00
284,2012.00,80.00,-15536.00,28.62,1814.00,3411.00,-305.00
285,296.00,-1156.00,-13280.00,28.67,-5066.00,-2551.00,-40.00
286,-56.00,2932.00,-16832.00,28.62,4017.00,-641.00,-765.00
287,-264.00,-1104.00,-13600.00,28.67,942.00,1424.00,134.00
288,320.00,-324.00,-12196.00,28.62,-557.00,-1368.00,945.00
289,144.00,972.00,-15648.00,28.67,-3154.00,-227.00,280.00
290,-1376.00,-884.00,-16164.00,28.58,905.00,-5230.00,2489.00
291,-304.00,-3152.00,-13860.00,28.67,2278.00,249.00,8932.00
292,-892.00,-288.00,-13236.00,28.62,-229.00,-1117.00,2724.00
293,-516.00,0.00,-15980.00,28.58,-2558.00,-2241.00,-2030.00
294,-968.00,-128.00,-12984.00,28.53,-1572.00,-1310.00,920.00
295,-648.00,-4112.00,-14692.00,28.62,-358.00,600.00,-2401.00
296,-2016.00,2528.00,-13152.00,28.62,-6609.00,5448.00,-8297.00
297,396.00,-2396.00,-15768.00,28.62,-1026.00,1619.00,-1984.00
298,124.00,-1552.00,-13876.00,28.62,3573.00,-1956.00,37.00
299,964.00,-716.00,-14208.00,28.62,-7096.00,2082.00,-3075.00
300,1116.00,528.00,-15444.00,28.72,3848.00,1494.00,-2012.00
301,44.00,-2144.00,-15772.00,28.58,-1973.00,-1400.00,407.00
302,292.00,-1524.00,-12252.00,28.72,-4128.00,1964.00,-480.00
303,-556.00,1844.00,-13000.00,28.53,410.00,188.00,-1103.00
304,328.00,-1680.00,-14724.00,28.72,-920.00,-1395.00,-355.00
305,572.00,100.00,-15488.00,28.62,-3009.00,257.00,-1319.00
306,-196.00,156.00,-13720.00,28.62,478.00,-646.00,-341.00
307,-608.00,412.00,-16012.00,28.62,-102.00,314.00,-108.00
308,524.00,-836.00,-14136.00,28.58,-3653.00,-1116.00,-561.00
309,-740.00,-548.00,-15012.00,28.62,2645.00,-1849.00,-635.00
310,924.00,856.00,-15740.00,28.62,774.00,2997.00,129.00
311,188.00,-844.00,-13956.00,28.58,-2737.00,-1460.00,-291.00
312,-212.00,1308.00,-15752.00,28.58,2753.00,-860.00,-412.00
313,492.00,-1040.00,-14976.00,28.62,-1183.00,2492.00,-941.00
314,464.00,-876.00,-14580.00,28.48,-1964.00,-1738.00,-526.00
315,-1776.00,-2176.00,-17828.00,28.53,2558.00,151.00,-706.00
316,200.00,-384.00,-12392.00,28.62,-1531.00,-125.00,-152.00
317,616.00,-1092.00,-16396.00,28.67,-1603.00,-1563.00,-574.00
318,348.00,-136.00,-12116.00,28.58,-2962.00,1209.00,-358.00
319,-72.00,1512.00,-12724.00,28.62,-796.00,-1696.00,-146.00
320,-740.00,956.00,-19484.00,28.58,2178.00,319.00,146.00
321,464.00,-676.00,-12772.00,28.58,-2123.00,-842.00,117.00
322,36.00,2896.00,-19064.00,28.62,2665.00,-925.00,431.00
323,-132.00,-380.00,-12444.00,28.62,-746.00,-260.00,197.00
324,756.00,-876.00,-18576.00,28.67,-386.00,-1569.00,-595.00
325,860.00,96.00,-15844.00,28.62,-1735.00,280.00,240.00
326,-676.00,1108.00,-16816.00,28.53,3841.00,-1610.00,-735.00
327,1176.00,-316.00,-14196.00,28.58,-2009.00,2580.00,-350.00
328,-360.00,-780.00,-12780.00,28.58,-1971.00,-2084.00,-281.00
329,1212.00,-2180.00,-16184.00,28.53,12145.00,-493.00,9364.00
330,-552.00,-5156.00,-14344.00,28.62,4367.00,-3921.00,8344.00
331,-2112.00,-1492.00,-14456.00,28.72,3804.00,-1628.00,2329.00
332,-1924.00,-2232.00,-15524.00,28.53,-4248.00,1566.00,-465.00
333,96.00,992.00,-13888.00,28.67,-1676.00,-3271.00,-42.00
334,-768.00,-284.00,-15408.00,28.58,-489.00,1214.00,-3881.00
335,-1844.00,-1920.00,-15080.00,28.72,-9630.00,5571.00,-8128.00
336,-688.00,-2936.00,-16468.00,28.58,-2762.00,3440.00,-672.00
337,-216.00,-868.00,-11064.00,28.62,-569.00,-2538.00,-366.00
338,-2608.00,-2356.00,-12316.00,28.62,1646.00,2837.00,-3693.00
339,488.00,-92.00,-14032.00,28.62,-3470.00,405.00,-3054.00
340,-28.00,1320.00,-15648.00,28.67,-5014.00,-1416.00,-1771.00
341,-4748.00,1952.00,-15636.00,28.67,5161.00,1336.00,-1503.00
342,-480.00,980.00,-12344.00,28.58,-2018.00,-1429.00,766.00
343,-176.00,1052.00,-18016.00,28.62,-3611.00,-484.00,-176.00
344,-2308.00,-1104.00,-14976.00,28.67,4338.00,-1105.00,915.00
345,600.00,2744.00,-11624.00,28.67,-2121.00,-75.00,-282.00
346,848.00,1160.00,-20016.00,28.53,-793.00,-1272.00,-591.00
347,992.00,288.00,-15056.00,28.58,-4566.00,-500.00,750.00
348,172.00,1884.00,-15200.00,28.67,5708.00,-2127.00,-721.00
349,220.00,2852.00,-20404.00,28.62,1031.00,-566.00,-168.00
350,188.00,1000.00,-12864.00,28.58,-203.00,-1077.00,951.00
351,-696.00,-264.00,-16648.00,28.58,1575.00,-180.00,-1289.00
352,1052.00,1364.00,-10928.00,28.67,305.00,-1472.00,2878.00
353,1920.00,-4188.00,-21876.00,28.62,6152.00,-6308.00,10610.00
354,-2884.00,-740.00,-14744.00,28.72,3565.00,1171.00,4469.00
355,-1584.00,1056.00,-19500.00,28.62,-2381.00,938.00,-1207.00
356,-312.00,792.00,-14188.00,28.62,20.00,-1490.00,-971.00
357,-284.00,-924.00,-18596.00,28.53,505.00,-1506.00,-5024.00
358,-2032.00,4308.00,-14264.00,28.72,-3651.00,3363.00,-8801.00
359,880.00,-5004.00,-16676.00,28.62,-1814.00,859.00,-591.00
360,432.00,3384.00,-13648.00,28.62,-3846.00,-1917.00,-868.00
361,336.00,1120.00,-18008.00,28.53,5887.00,-273.00,-211.00
362,404.00,0.00,-14032.00,28.58,-4856.00,68.00,-604.00
363,-716.00,408.00,-17016.00,28.62,-1459.00,523.00,-695.00
364,-944.00,704.00,-16140.00,28.58,8201.00,-2660.00,942.00
365,184.00,2816.00,-13136.00,28.48,-6081.00,290.00,-262.00
366,156.00,128.00,-20960.00,28.53,4884.00,-44.00,-434.00
367,368.00,772.00,-13028.00,28.53,-3702.00,-655.00,1318.00
368,-584.00,2084.00,-15872.00,28.62,5741.00,-1383.00,-1340.00
369,720.00,-664.00,-14404.00,28.53,-2424.00,-51.00,690.00
370,-228.00,-4104.00,-16424.00,28.62,9865.00,-4869.00,9107.00
371,-1480.00,-1856.00,-14432.00,28.62,6368.00,-1847.00,8578.00
372,-1368.00,-476.00,-16624.00,28.58,-7621.00,2659.00,466.00
373,-1492.00,120.00,-15424.00,28.44,1521.00,-2427.00,-2118.00
374,212.00,-1044.00,-13328.00,28.62,-153.00,-2902.00,2541.00
375,-1764.00,1904.00,-15536.00,28.48,-2718.00,2394.00,-5426.00
376,-2184.00,-2016.00,-17764.00,28.58,3206.00,1275.00,-768.00
377,116.00,668.00,-10780.00,28.58,-2206.00,-1690.00,307.00
378,-1612.00,-1568.00,-13012.00,28.62,-2520.00,2820.00,-3057.00
379,-768.00,264.00,-13508.00,28.62,-10162.00,1720.00,-6760.00
380,-184.00,8.00,-15508.00,28.62,-80.00,3763.00,-3203.00
381,748.00,-460.00,-17196.00,28.62,-3240.00,-2134.00,-65.00
382,1760.00,3112.00,-8688.00,28.48,-4815.00,461.00,-1256.00
383,120.00,3472.00,-13640.00,28.72,343.00,-576.00,-11.00
384,1980.00,796.00,-18276.00,28.62,488.00,4556.00,758.00
385,-544.00,488.00,-13992.00,28.67,-3270.00,-2264.00,-500.00
386,-96.00,2576.00,-16776.00,28.58,2069.00,-530.00,175.00
387,416.00,2164.00,-12720.00,28.58,-475.00,-1078.00,928.00
388,304.00,416.00,-17672.00,28.53,2003.00,-2036.00,-276.00
389,304.00,1552.00,-13828.00,28.62,-2249.00,-767.00,742.00
390,1316.00,-1044.00,-16284.00,28.58,6947.00,-1395.00,1954.00
391,-2076.00,1540.00,-15268.00,28.62,-1306.00,480.00,527.00
392,-552.00,204.00,-15528.00,28.62,-864.00,-1946.00,811.00
393,-840.00,3532.00,-14072.00,28.53,-7890.00,-4001.00,1463.00
394,-2112.00,-4256.00,-14288.00,28.62,10891.00,-2794.00,3794.00
395,-348.00,1020.00,-14648.00,28.67,5023.00,1325.00,4351.00
396,-2476.00,4060.00,-19156.00,28.53,3940.00,-1717.00,-523.00
397,-1828.00,-384.00,-9100.00,28.53,-451.00,-2793.00,-136.00
398,-1296.00,1508.00,-14592.00,28.58,-4686.00,1568.00,-2709.00
399,-1228.00,-1084.00,-17792.00,28.48,2134.00,300.00,-1988.00
400,-1212.00,-2060.00,-13080.00,28.67,-545.00,4029.00,-5075.00
401,-1476.00,4260.00,-15616.00,28.67,-4495.00,3982.00,-7621.00
402,-2584.00,-3592.00,-17396.00,28.58,2399.00,177.00,278.00
403,952.00,28.00,-13116.00,28.53,-7534.00,-915.00,949.00
404,-492.00,780.00,-15992.00,28.53,-87.00,-2381.00,-1290.00
405,912.00,2260.00,-15848.00,28.58,-3570.00,390.00,108.00
406,-1740.00,244.00,-14872.00,28.58,7643.00,-1489.00,752.00
407,1204.00,2248.00,-14164.00,28.53,-5575.00,317.00,1072.00
408,-348.00,1192.00,-15260.00,28.58,579.00,-1514.00,162.00
409,748.00,1096.00,-13048.00,28.62,-5396.00,1123.00,-631.00
410,-132.00,1632.00,-13228.00,28.48,10223.00,-2226.00,3074.00
411,-864.00,-2964.00,-15668.00,28.58,9490.00,-1561.00,8942.00
412,-536.00,-1332.00,-17412.00,28.67,-1273.00,914.00,645.00
413,-1848.00,32.00,-14956.00,28.62,-1839.00,-1974.00,-322.00
414,-532.00,-68.00,-12952.00,28.58,-3014.00,-2037.00,306.00
415,-2064.00,-536.00,-14828.00,28.62,-2938.00,1366.00,-6434.00
416,52.00,1564.00,-13724.00,28.62,-10314.00,5345.00,-8124.00
417,-1012.00,432.00,-16316.00,28.53,1332.00,-501.00,-639.00
418,372.00,32.00,-15296.00,28.58,2177.00,-1696.00,-848.00
419,520.00,-184.00,-14688.00,28.48,606.00,521.00,-885.00
420,-588.00,3708.00,-13944.00,28.58,-1091.00,-864.00,-1803.00
421,892.00,2516.00,-13880.00,28.53,-4499.00,1137.00,-307.00
422,-836.00,-880.00,-16132.00,28.58,-1790.00,-1732.00,352.00
423,292.00,52.00,-13768.00,28.53,-4126.00,-92.00,947.00
424,-664.00,1424.00,-16608.00,28.62,6008.00,-1016.00,-779.00
425,-744.00,1920.00,-12784.00,28.58,-3420.00,555.00,837.00
426,-264.00,1404.00,-17080.00,28.53,225.00,-2172.00,862.00
427,-1512.00,-1980.00,-12580.00,28.58,2859.00,-3913.00,2978.00
428,-856.00,-1440.00,-14784.00,28.58,4256.00,-339.00,5807.00
429,-60.00,1820.00,-19200.00,28.53,3755.00,180.00,270.00
430,-1760.00,2516.00,-12868.00,28.53,-4361.00,-3202.00,-1340.00
431,212.00,648.00,-16992.00,28.58,1365.00,250.00,-925.00
432,-1152.00,-2296.00,-14820.00,28.67,-7417.00,3057.00,-5330.00
433,-12.00,1908.00,-15420.00,28.48,-4911.00,5768.00,-4512.00
434,-100.00,-2336.00,-17860.00,28.67,723.00,-2726.00,516.00
435,120.00,3216.00,-13732.00,28.53,-6428.00,-1624.00,184.00
436,456.00,24.00,-15560.00,28.67,9506.00,-233.00,-487.00
437,272.00,-880.00,-13900.00,28.58,-4749.00,486.00,236.00
438,-636.00,1948.00,-14380.00,28.58,1143.00,-1594.00,212.00
439,364.00,860.00,-14104.00,28.62,-3870.00,441.00,-392.00
440,-904.00,512.00,-16168.00,28.62,3958.00,636.00,-338.00
441,-960.00,-208.00,-12780.00,28.58,894.00,-2113.00,409.00
442,24.00,1100.00,-15804.00,28.58,-3994.00,-133.00,193.00
443,164.00,240.00,-10540.00,28.62,651.00,2914.00,824.00
444,-800.00,2212.00,-13544.00,28.58,-201.00,555.00,-477.00
445,-980.00,-804.00,-15080.00,28.53,3867.00,-63.00,-1208.00
446,-932.00,2168.00,-13688.00,28.48,-3442.00,1560.00,-4350.00
447,-704.00,-1320.00,-20248.00,28.58,9421.00,687.00,-2295.00
448,-72.00,720.00,-17516.00,28.62,-1116.00,-1162.00,720.00
449,480.00,296.00,-13812.00,28.58,-11338.00,-1977.00,-1202.00
450,-284.00,2396.00,-21200.00,28.62,382.00,-3941.00,1575.00
451,-232.00,2032.00,-12016.00,28.58,-2793.00,-1514.00,736.00
452,564.00,5120.00,-18216.00,28.62,-2590.00,418.00,1011.00
453,-1296.00,3268.00,-13940.00,28.58,-9649.00,-4418.00,-1081.00
454,-1300.00,4248.00,-14328.00,28.67,3485.00,740.00,1087.00
455,-1216.00,2256.00,-12648.00,28.53,-6348.00,-1341.00,-457.00
456,-468.00,5288.00,-14620.00,28.58,2489.00,1710.00,460.00
457,-444.00,2600.00,-19816.00,28.48,-2835.00,-534.00,-593.00
458,-236.00,2972.00,-12244.00,28.48,-712.00,-449.00,-2263.00
459,-772.00,2572.00,-15736.00,28.53,4030.00,-1932.00,772.00
460,-1028.00,1312.00,-14932.00,28.58,4582.00,1451.00,898.00
461,-1616.00,1448.00,-11172.00,28.53,-1214.00,-461.00,114.00
462,-984.00,2220.00,-18032.00,28.62,6947.00,982.00,365.00
463,-96.00,2488.00,-11576.00,28.53,-4445.00,316.00,-99.00
464,-160.00,1544.00,-17096.00,28.53,1023.00,-714.00,52.00
465,-252.00,260.00,-17640.00,28.53,1179.00,-511.00,-121.00
466,192.00,3388.00,-12932.00,28.48,661.00,-266.00,-376.00
467,536.00,672.00,-20060.00,28.58,3071.00,40.00,-577.00
468,-1208.00,740.00,-12716.00,28.67,-8437.00,-1068.00,742.00
469,-248.00,5372.00,-15760.00,28.62,1895.00,-829.00,-1554.00
470,-1024.00,3884.00,-9204.00,28.53,2461.00,-1630.00,-3.00
471,676.00,-632.00,-14992.00,28.48,2081.00,3635.00,-1126.00
472,-1948.00,1440.00,-15232.00,28.53,-3786.00,-1188.00,292.00
473,-1060.00,1516.00,-16820.00,28.58,6260.00,-303.00,-1213.00
474,592.00,3956.00,-13076.00,28.58,-7707.00,1903.00,-1942.00
475,-408.00,-548.00,-16860.00,28.58,1503.00,-1293.00,-471.00
476,464.00,-840.00,-14096.00,28.62,946.00,508.00,822.00
477,-664.00,3044.00,-13116.00,28.62,-434.00,-117.00,-439.00
478,112.00,-328.00,-16232.00,28.58,1001.00,-1407.00,-5.00
479,156.00,876.00,-15248.00,28.58,-4779.00,61.00,64.00
480,-820.00,2272.00,-15444.00,28.58,5699.00,74.00,-293.00
481,-88.00,2340.00,-12856.00,28.53,-1798.00,-1166.00,0.00
482,292.00,-1648.00,-11852.00,28.58,1328.00,3022.00,14.00
483,-1332.00,780.00,-11768.00,28.58,-7243.00,-1824.00,-315.00
484,140.00,772.00,-16284.00,28.58,5233.00,-1670.00,-252.00
485,1572.00,-496.00,-13640.00,28.53,-899.00,3044.00,438.00
486,-844.00,1292.00,-15388.00,28.53,-2814.00,-1731.00,-341.00
487,-584.00,584.00,-18988.00,28.62,7479.00,-1111.00,43.00
488,-1512.00,676.00,-12736.00,28.62,3382.00,-4229.00,1275.00
489,-564.00,-4496.00,-16864.00,28.53,10916.00,-2200.00,10053.00
490,-1344.00,-400.00,-15400.00,28.62,-6214.00,1353.00,2998.00
491,-2520.00,1060.00,-16236.00,28.53,-1351.00,26.00,80.00
492,-940.00,1096.00,-11864.00,28.67,712.00,-1488.00,-2864.00
493,-1984.00,-2764.00,-14404.00,28.58,-6045.00,3763.00,-7572.00
494,-296.00,512.00,-12716.00,28.58,-7917.00,5054.00,-6255.00
495,360.00,-40.00,-16348.00,28.48,65.00,-274.00,-850.00
496,920.00,-440.00,-15960.00,28.53,5503.00,-565.00,-988.00
497,176.00,1748.00,-14796.00,28.58,-8786.00,938.00,-2288.00
498,-468.00,1536.00,-16184.00,28.53,5909.00,-1425.00,-446.00
499,96.00,-1548.00,-16648.00,28.58,1193.00,-13.00,1640.00
500,-556.00,1684.00,-12324.00,28.48,-2576.00,-1546.00,382.00
501,20.00,2532.00,-18080.00,28.48,-567.00,11.00,-640.00
502,-1160.00,1124.00,-13400.00,28.53,298.00,-1716.00,-143.00
503,356.00,1044.00,-14080.00,28.58,-2244.00,2095.00,258.00
504,-792.00,-12.00,-16916.00,28.62,-1322.00,-2017.00,-1184.00
505,920.00,1968.00,-13820.00,28.53,-6040.00,332.00,338.00
506,-1100.00,3132.00,-13644.00,28.53,3301.00,-3014.00,-889.00
507,1312.00,-1184.00,-15124.00,28.48,493.00,4883.00,688.00
508,-716.00,104.00,-14448.00,28.62,-2493.00,-1828.00,-43.00
509,-1612.00,996.00,-16336.00,28.58,4034.00,-1289.00,561.00
510,-396.00,2476.00,-12520.00,28.53,290.00,-988.00,-827.00
511,48.00,1464.00,-21988.00,28.58,2666.00,-179.00,-115.00
512,-532.00,1464.00,-11732.00,28.53,-4704.00,-917.00,1208.00
513,-1248.00,1768.00,-16544.00,28.62,2207.00,-952.00,-507.00
514,-664.00,2396.00,-14340.00,28.53,2269.00,-819.00,-845.00
515,1380.00,-2200.00,-11648.00,28.67,914.00,3206.00,63.00
516,-704.00,-540.00,-11412.00,28.58,-2055.00,-2012.00,370.00
517,-272.00,2168.00,-15396.00,28.48,-7127.00,1676.00,-1050.00
518,-1140.00,2012.00,-16928.00,28.48,6460.00,-932.00,-867.00
519,460.00,2296.00,-13176.00,28.53,-5388.00,1355.00,602.00
520,888.00,672.00,-19244.00,28.58,3062.00,-1814.00,-47.00
521,-180.00,1704.00,-12384.00,28.58,-7659.00,174.00,491.00
522,-880.00,1560.00,-16864.00,28.62,6144.00,-3350.00,-695.00
523,-536.00,3776.00,-12604.00,28.58,-1720.00,1597.00,-175.00
524,912.00,1140.00,-20020.00,28.58,3254.00,-674.00,-259.00
525,336.00,1632.00,-14120.00,28.62,-4269.00,-453.00,1671.00
526,-400.00,1844.00,-16108.00,28.58,4249.00,-1257.00,-1012.00
527,-496.00,1708.00,-13396.00,28.53,97.00,1142.00,-569.00
528,12.00,2104.00,-20976.00,28.58,342.00,-892.00,258.00
529,156.00,-624.00,-12984.00,28.53,-4321.00,-1763.00,761.00
530,-372.00,-492.00,-14524.00,28.58,-206.00,-1515.00,-676.00
531,-428.00,1968.00,-17996.00,28.53,-3192.00,-3552.00,1549.00
532,-1784.00,4.00,-11384.00,28.53,12205.00,-4324.00,8086.00
533,-1936.00,-2252.00,-12392.00,28.58,6233.00,2645.00,6317.00
534,-2300.00,884.00,-17552.00,28.67,2192.00,-1089.00,-274.00
535,-1916.00,-220.00,-13972.00,28.48,-2113.00,-2422.00,-452.00
536,976.00,1044.00,-16916.00,28.58,-856.00,-2626.00,-3845.00
537,-3092.00,-1508.00,-12924.00,28.58,-4324.00,2303.00,-6448.00
538,-872.00,1772.00,-13228.00,28.58,-10181.00,4540.00,-3757.00
539,-328.00,1508.00,-16356.00,28.58,2242.00,20.00,-582.00
540,316.00,1756.00,-16060.00,28.62,-3463.00,-1356.00,-1027.00
541,680.00,1108.00,-14848.00,28.48,-5209.00,1485.00,-1692.00
542,-1364.00,2372.00,-15552.00,28.58,6514.00,-1588.00,-2093.00
543,572.00,2044.00,-14380.00,28.67,-2686.00,2359.00,352.00
544,-520.00,208.00,-15892.00,28.62,-1636.00,-2759.00,-4.00
545,816.00,1292.00,-14884.00,28.62,-1099.00,715.00,652.00
546,-496.00,1272.00,-16976.00,28.58,5697.00,-2968.00,180.00
547,36.00,2872.00,-13084.00,28.53,-182.00,1429.00,712.00
548,1276.00,404.00,-19200.00,28.53,-752.00,-2254.00,602.00
549,-736.00,1632.00,-14532.00,28.48,-1011.00,-830.00,-82.00
550,-1276.00,-36.00,-16648.00,28.53,6595.00,728.00,-1865.00
551,-828.00,2068.00,-12544.00,28.67,766.00,-1385.00,30.00
552,-1224.00,-2088.00,-9684.00,28.48,3339.00,3807.00,1664.00
553,-1128.00,1304.00,-11848.00,28.58,-5637.00,-2262.00,561.00
554,656.00,-3468.00,-19512.00,28.62,11571.00,-4280.00,9027.00
555,-2172.00,-1484.00,-12532.00,28.62,2126.00,-1296.00,4862.00
556,-2588.00,132.00,-15176.00,28.62,1021.00,3408.00,-1326.00
557,-1316.00,24.00,-14848.00,28.53,1221.00,-2676.00,-1709.00
558,-36.00,632.00,-12868.00,28.58,2358.00,-1227.00,-2033.00
559,-2556.00,-2744.00,-14188.00,28.58,-3940.00,4037.00,-8258.00
560,-648.00,-24.00,-14620.00,28.58,-4029.00,3328.00,-4986.00
561,688.00,252.00,-17436.00,28.48,-715.00,381.00,-475.00
562,820.00,2108.00,-15548.00,28.58,-3021.00,-1955.00,463.00
563,104.00,176.00,-14272.00,28.53,1144.00,-696.00,-1055.00
564,-288.00,-4.00,-14580.00,28.53,-6221.00,2631.00,-2418.00
565,-112.00,2656.00,-14912.00,28.53,1930.00,-1043.00,25.00
566,520.00,1984.00,-17420.00,28.58,-1359.00,-618.00,144.00
567,-152.00,1272.00,-13132.00,28.58,-2073.00,-955.00,-3.00
568,-436.00,516.00,-16228.00,28.53,2955.00,366.00,414.00
569,-380.00,1292.00,-13648.00,28.62,717.00,-1366.00,411.00
570,800.00,708.00,-15544.00,28.62,-1201.00,3219.00,881.00
571,-772.00,1440.00,-14572.00,28.58,-4395.00,-1470.00,-100.00
572,-948.00,588.00,-15684.00,28.58,2779.00,140.00,690.00
573,96.00,1320.00,-14796.00,28.67,2697.00,-3210.00,633.00
574,548.00,-440.00,-12240.00,28.58,286.00,3287.00,-30.00
575,-1424.00,612.00,-13060.00,28.58,-4622.00,-2482.00,-455.00
576,20.00,1968.00,-16468.00,28.58,3540.00,300.00,-441.00
577,-1536.00,1096.00,-12616.00,28.48,1566.00,-4437.00,508.00
578,-64.00,-1488.00,-15420.00,28.58,5452.00,-318.00,5863.00
579,-2040.00,-2536.00,-16640.00,28.62,5170.00,-1531.00,6967.00
580,-1232.00,-216.00,-13148.00,28.62,-10449.00,4885.00,-973.00
581,-1932.00,-424.00,-15720.00,28.62,-1923.00,-3456.00,-2350.00
582,-1280.00,-1152.00,-13412.00,28.58,178.00,-2172.00,-1207.00
583,-1748.00,-2280.00,-14064.00,28.48,-5102.00,2726.00,-8235.00
584,-716.00,-1288.00,-14740.00,28.53,-6322.00,4264.00,-4687.00
585,1092.00,2312.00,-17604.00,28.53,1533.00,-297.00,-1083.00
586,696.00,1556.00,-15108.00,28.53,-2929.00,-1882.00,1987.00
587,184.00,1284.00,-14012.00,28.48,-1952.00,59.00,-652.00
588,-936.00,-412.00,-15348.00,28.58,2291.00,-319.00,-108.00
589,308.00,576.00,-12312.00,28.48,-1532.00,576.00,418.00
590,-260.00,1772.00,-18168.00,28.58,-630.00,-1973.00,-112.00
591,-4.00,-164.00,-13428.00,28.53,-1655.00,-298.00,495.00
592,-88.00,2676.00,-13744.00,28.53,463.00,-907.00,-246.00
593,-620.00,232.00,-16292.00,28.58,-52.00,1140.00,-490.00
594,-1036.00,292.00,-15476.00,28.58,831.00,-1822.00,483.00
595,-880.00,2632.00,-14084.00,28.53,231.00,378.00,-14.00
596,-452.00,1148.00,-15464.00,28.53,-662.00,484.00,-780.00
597,-356.00,200.00,-15452.00,28.62,-158.00,-368.00,-86.00
598,-280.00,1192.00,-14456.00,28.58,-1022.00,-143.00,-53.00
599,-612.00,1344.00,-14888.00,28.53,-726.00,-299.00,-229.00
600,-380.00,1192.00,-14852.00,28.58,-232.00,-185.00,-113.00
601,-428.00,924.00,-14772.00,28.62,-922.00,-185.00,-255.00
602,-440.00,860.00,-14852.00,28.48,52.00,-211.00,-84.00
603,-552.00,1096.00,-14924.00,28.58,-528.00,-348.00,-93.00
604,-556.00,872.00,-14716.00,28.53,-248.00,-300.00,-47.00
605,-524.00,964.00,-14732.00,28.53,-277.00,-156.00,-145.00
606,-624.00,1164.00,-14764.00,28.48,-364.00,-202.00,-235.00
607,-560.00,984.00,-15176.00,28.62,-81.00,-347.00,-136.00
608,-548.00,1080.00,-14856.00,28.67,-491.00,-271.00,-238.00
609,-584.00,1064.00,-14912.00,28.62,-300.00,-414.00,-150.00
610,-628.00,1156.00,-14740.00,28.58,-247.00,-303.00,-216.00
611,-512.00,940.00,-14960.00,28.53,-361.00,-304.00,-241.00
612,-688.00,1020.00,-14836.00,28.48,-391.00,-288.00,-241.00
613,-624.00,1072.00,-14704.00,28.53,-148.00,-259.00,-114.00
614,-756.00,892.00,-14912.00,28.48,-612.00,-274.00,-257.00
615,-696.00,1084.00,-14976.00,28.53,-469.00,-285.00,-113.00
616,-688.00,940.00,-14848.00,28.58,-473.00,-232.00,-206.00
617,-696.00,1016.00,-14972.00,28.53,-602.00,-283.00,-266.00
618,-772.00,1084.00,-14904.00,28.48,-337.00,-266.00,-229.00
619,-748.00,984.00,-14784.00,28.53,-363.00,-269.00,-236.00
620,-760.00,1036.00,-14772.00,28.58,-322.00,-273.00,-187.00
621,-660.00,1028.00,-14840.00,28.62,-317.00,-300.00,-69.00
622,-800.00,1188.00,-14860.00,28.48,-219.00,-330.00,-124.00
623,-708.00,1008.00,-14936.00,28.53,-449.00,-122.00,-205.00
624,-800.00,1116.00,-14876.00,28.58,-338.00,-269.00,-215.00
625,-792.00,916.00,-14712.00,28.53,-358.00,-137.00,-205.00
626,-716.00,1000.00,-14896.00,28.58,-403.00,-255.00,-237.00
627,-740.00,1100.00,-14908.00,28.62,-174.00,-207.00,-261.00
628,-668.00,1052.00,-14868.00,28.48,-551.00,-207.00,-237.00
629,-684.00,960.00,-14648.00,28.58,-429.00,-190.00,-196.00
630,-652.00,1108.00,-14936.00,28.58,-395.00,-220.00,-280.00
631,-756.00,940.00,-15000.00,28.58,-437.00,-185.00,-151.00
632,-744.00,1140.00,-14660.00,28.58,-279.00,-330.00,-131.00
633,-864.00,1084.00,-14940.00,28.62,-327.00,-283.00,-180.00
634,-812.00,972.00,-14724.00,28.62,-378.00,-265.00,-182.00
635,-764.00,1184.00,-14844.00,28.53,-395.00,-205.00,-177.00
636,-748.00,952.00,-14940.00,28.53,-306.00,-199.00,-250.00
637,-908.00,956.00,-14780.00,28.53,-306.00,-304.00,-204.00
638,-796.00,1260.00,-14792.00,28.58,-357.00,-264.00,-93.00
639,-772.00,1024.00,-14980.00,28.53,-340.00,-263.00,-243.00
640,-848.00,1100.00,-14896.00,28.58,-383.00,-263.00,-154.00
641,-876.00,988.00,-14728.00,28.44,-392.00,-169.00,-203.00
642,-744.00,988.00,-14924.00,28.48,-278.00,-175.00,-178.00
643,-880.00,1072.00,-14760.00,28.62,-246.00,-260.00,-222.00
644,-712.00,928.00,-14868.00,28.58,-379.00,-135.00,-140.00
645,-760.00,1140.00,-15032.00,28.53,-340.00,-227.00,-172.00
646,-868.00,1084.00,-14984.00,28.58,-450.00,-244.00,-222.00
647,-812.00,1000.00,-15004.00,28.53,-342.00,-209.00,-263.00
648,-688.00,848.00,-14840.00,28.48,-486.00,-162.00,-239.00
649,-772.00,1004.00,-15008.00,28.53,-411.00,-174.00,-226.00
650,-812.00,1136.00,-14968.00,28.48,-282.00,-238.00,-122.00
651,-828.00,1068.00,-14944.00,28.53,-311.00,-267.00,-118.00
652,-720.00,1140.00,-15040.00,28.48,-379.00,-204.00,-152.00
653,-708.00,1124.00,-14824.00,28.53,-357.00,-169.00,-216.00
654,-780.00,1028.00,-14904.00,28.53,-347.00,-147.00,-231.00
655,-744.00,1152.00,-14836.00,28.48,-441.00,-152.00,-247.00
656,-800.00,1120.00,-14872.00,28.67,-302.00,-232.00,-186.00
657,-752.00,1036.00,-14892.00,28.58,-324.00,-149.00,-195.00
658,-768.00,1056.00,-14916.00,28.62,-455.00,-275.00,-196.00
659,-896.00,1024.00,-14784.00,28.62,-433.00,-134.00,-244.00
660,-868.00,992.00,-14940.00,28.62,-385.00,-199.00,-181.00
661,-784.00,1044.00,-14840.00,28.58,-425.00,-229.00,-154.00
662,-812.00,1060.00,-15092.00,28.53,-190.00,-339.00,-206.00
663,-816.00,976.00,-14804.00,28.48,-467.00,-271.00,-106.00
664,-672.00,1120.00,-14892.00,28.62,-473.00,-173.00,-160.00
665,-776.00,1140.00,-14976.00,28.48,-275.00,-259.00,-190.00
666,-836.00,1160.00,-14884.00,28.62,-315.00,-113.00,-202.00
667,-904.00,984.00,-14768.00,28.44,-358.00,-244.00,-186.00
668,-812.00,1104.00,-14740.00,28.58,-301.00,-244.00,-150.00
669,-820.00,1220.00,-14984.00,28.53,-402.00,-164.00,-194.00
670,-920.00,1132.00,-14856.00,28.58,-395.00,-351.00,-117.00
671,-892.00,1080.00,-14748.00,28.62,-372.00,-206.00,-182.00
672,-724.00,1216.00,-14840.00,28.58,-428.00,-199.00,-209.00
673,-844.00,1176.00,-14956.00,28.44,-347.00,-159.00,-199.00
674,-904.00,1080.00,-14844.00,28.48,-394.00,-225.00,-213.00
675,-780.00,1180.00,-14792.00,28.53,-367.00,-184.00,-191.00
676,-932.00,1244.00,-14892.00,28.58,-388.00,-252.00,-169.00
677,-756.00,1092.00,-14776.00,28.53,-366.00,-268.00,-84.00
678,-852.00,1216.00,-14792.00,28.58,-419.00,-301.00,-178.00
679,-808.00,1192.00,-14832.00,28.53,-434.00,-267.00,-177.00
680,-928.00,1192.00,-14844.00,28.58,-361.00,-258.00,-224.00
681,-880.00,1044.00,-14948.00,28.44,-400.00,-193.00,-205.00
682,-792.00,1288.00,-14840.00,28.58,-455.00,-294.00,-155.00
683,-864.00,1272.00,-14840.00,28.53,-471.00,-139.00,-117.00
684,-852.00,1268.00,-14756.00,28.58,-360.00,-251.00,-195.00
685,-856.00,1288.00,-14728.00,28.53,-386.00,-196.00,-229.00
686,-868.00,1120.00,-14912.00,28.48,-464.00,-183.00,-247.00
687,-832.00,1244.00,-14972.00,28.62,-312.00,-176.00,-193.00
688,-868.00,1208.00,-14932.00,28.58,-470.00,-156.00,-186.00
689,-712.00,1292.00,-14772.00,28.53,-289.00,-118.00,-194.00
690,-832.00,1144.00,-14988.00,28.48,-311.00,-122.00,-213.00
691,-780.00,1176.00,-14888.00,28.53,-250.00,-178.00,-202.00
692,-884.00,1100.00,-14956.00,28.48,-260.00,-216.00,-190.00
693,-852.00,1236.00,-14868.00,28.53,-410.00,-239.00,-200.00
694,-920.00,1304.00,-14860.00,28.58,-513.00,-275.00,-115.00
695,-852.00,1180.00,-14872.00,28.53,-236.00,-141.00,-254.00
696,-876.00,1084.00,-14952.00,28.58,-305.00,-240.00,-185.00
697,-792.00,1292.00,-14752.00,28.53,-430.00,-147.00,-194.00
698,-800.00,1132.00,-14836.00,28.48,-279.00,-267.00,-259.00
699,-896.00,1084.00,-15068.00,28.53,-443.00,-186.00,-182.00
700,-920.00,1152.00,-14884.00,28.58,-373.00,-202.00,-170.00
701,-880.00,1216.00,-14996.00,28.53,-456.00,-253.00,-117.00
702,-916.00,1372.00,-15164.00,28.58,-445.00,-200.00,-227.00
703,-816.00,1340.00,-14972.00,28.53,-365.00,-237.00,-218.00
704,-856.00,1220.00,-14844.00,28.48,-395.00,-232.00,-211.00
705,-912.00,1136.00,-14948.00,28.53,-361.00,-218.00,-198.00
706,-924.00,1128.00,-14820.00,28.58,-382.00,-304.00,-152.00
707,-960.00,1164.00,-14860.00,28.53,-360.00,-158.00,-226.00
708,-884.00,1152.00,-14892.00,28.58,-399.00,-155.00,-48.00
709,-832.00,1232.00,-14768.00,28.62,-316.00,-195.00,-110.00
710,-900.00,1240.00,-14908.00,28.48,-308.00,-223.00,-236.00
711,-892.00,1176.00,-14828.00,28.53,-372.00,-207.00,-209.00
712,-808.00,1212.00,-14736.00,28.58,-419.00,-206.00,-222.00
713,-792.00,1288.00,-15000.00,28.62,-371.00,-250.00,-198.00
714,-904.00,1196.00,-14808.00,28.58,-367.00,-131.00,-214.00
715,-884.00,1228.00,-14832.00,28.53,-337.00,-244.00,-216.00
716,-912.00,1240.00,-14872.00,28.48,-340.00,-183.00,-177.00
717,-820.00,1272.00,-14664.00,28.53,-372.00,-142.00,-246.00
718,-996.00,1316.00,-14756.00,28.58,-423.00,-104.00,-267.00
719,-992.00,1140.00,-14836.00,28.44,-393.00,-272.00,-178.00
720,-860.00,1400.00,-14864.00,28.48,-296.00,-156.00,-224.00
721,-952.00,1288.00,-14932.00,28.53,-330.00,-139.00,-250.00
722,-888.00,1208.00,-14748.00,28.53,-332.00,-162.00,-255.00
723,-888.00,1140.00,-14956.00,28.53,-319.00,-143.00,-163.00
724,-924.00,1228.00,-14828.00,28.53,-288.00,-216.00,-173.00
725,-888.00,1204.00,-14960.00,28.48,-405.00,-175.00,-165.00
726,-808.00,1252.00,-14872.00,28.53,-333.00,-157.00,-216.00
727,-904.00,1252.00,-14700.00,28.58,-257.00,-263.00,-191.00
728,-884.00,1252.00,-14884.00,28.53,-466.00,-204.00,-208.00
729,-768.00,1204.00,-14864.00,28.58,-326.00,-213.00,-246.00
730,-816.00,1288.00,-14792.00,28.53,-368.00,-248.00,-144.00
731,-800.00,1396.00,-14744.00,28.58,-412.00,-245.00,-218.00
732,-944.00,1268.00,-14920.00,28.53,-336.00,-207.00,-202.00
733,-832.00,1272.00,-14824.00,28.48,-456.00,-211.00,-264.00
734,-948.00,1264.00,-14812.00,28.62,-459.00,-208.00,-201.00
735,-904.00,1276.00,-14712.00,28.48,-297.00,-242.00,-204.00
736,-820.00,1256.00,-14952.00,28.62,-368.00,-309.00,-111.00
737,-980.00,1284.00,-14724.00,28.48,-435.00,-252.00,-137.00
738,-1032.00,1124.00,-14816.00,28.44,-341.00,-329.00,-91.00
739,-892.00,1312.00,-14756.00,28.48,-416.00,-218.00,-207.00
740,-884.00,1116.00,-14820.00,28.53,-332.00,-253.00,-214.00
741,-856.00,1356.00,-14736.00,28.67,-414.00,-200.00,-127.00
742,-880.00,1272.00,-14856.00,28.53,-357.00,-161.00,-190.00
743,-892.00,1288.00,-14880.00,28.48,-356.00,-218.00,-205.00
744,-976.00,1228.00,-14780.00,28.53,-386.00,-348.00,-128.00
745,-956.00,1356.00,-14832.00,28.53,-263.00,-176.00,-205.00
746,-972.00,1192.00,-14784.00,28.53,-336.00,-245.00,-146.00
747,-988.00,1284.00,-14880.00,28.58,-328.00,-188.00,-157.00
748,-1000.00,1216.00,-14880.00,28.53,-418.00,-188.00,-126.00
749,-852.00,1264.00,-15036.00,28.58,-378.00,-187.00,-224.00
750,-984.00,1208.00,-14776.00,28.53,-305.00,-232.00,-220.00
751,-864.00,1356.00,-14836.00,28.48,-377.00,-222.00,-221.00
752,-972.00,1348.00,-14872.00,28.58,-375.00,-145.00,-288.00
753,-904.00,1184.00,-14852.00,28.62,-277.00,-192.00,-277.00
754,-1004.00,112
Sample,aX,aY,az,Temp,gX,gY,gz
1,-820.00,1196.00,-14752.00,28.53,-272.00,-313.00,-145.00
2,-832.00,1352.00,-14756.00,28.53,-360.00,-164.00,-175.00
3,-1080.00,1292.00,-14912.00,28.53,-321.00,-275.00,-169.00
4,-980.00,1212.00,-14740.00,28.58,-378.00,-298.00,-175.00
5,-900.00,1204.00,-14644.00,28.48,-409.00,-145.00,-145.00
6,-1120.00,1284.00,-14944.00,28.53,-340.00,-266.00,-176.00
7,-912.00,1440.00,-14944.00,28.62,-440.00,-142.00,-220.00
8,-780.00,1524.00,-14872.00,28.48,-428.00,-307.00,-332.00
9,-936.00,1248.00,-14688.00,28.58,-503.00,-280.00,-272.00
10,-988.00,1324.00,-14696.00,28.48,-476.00,-273.00,-243.00
11,-956.00,1524.00,-14976.00,28.53,-722.00,-557.00,-362.00
12,-1468.00,1472.00,-14668.00,28.48,-636.00,-506.00,-317.00
13,-828.00,1456.00,-14708.00,28.53,-499.00,-86.00,-373.00
14,-892.00,1664.00,-14752.00,28.53,-390.00,-106.00,-469.00
15,-1312.00,1576.00,-14940.00,28.48,-698.00,-305.00,-428.00