00,-117.00                                                                      
551,14980.00,10848.00,-13396.00,27.97,2905.00,-1712.00,-1101.00                 
552,8000.00,9160.00,-9472.00,27.82,-1126.00,680.00,00                 
551,14980.00,10848.00,-13396.00,27.97,2905.00,-1712.00                
52,8000.00,9160.00,-9472.00,27.82,-1126.00,680.00,-27.00                       
Sample,aX,aY,az,Temp,gX,gY,gz                                                   
1,9608.00,9676.00,-7236.00,27.97,-635.00,361.00,-26.00                          
2,9228.00,9636.00,-8100.00,27.92,1328.00,-1722.00,-855.00                       
3,8820.00,9684.00,-8888.00,27.87,1057.00,-851.00,-923.00                        
4,8608.00,9520.00,-9240.00,27.92,1553.00,-1226.00,-427.00                       
5,8496.00,9360.00,-9120.00,27.92,-22.00,-822.00,-200.00                         
6,8580.00,9328.00,-9124.00,27.87,981.00,-1775.00,-160.00                        
7,8564.00,9288.00,-9684.00,27.87,228.00,-807.00,-374.00                         
8,8200.00,9512.00,-9468.00,27.92,-697.00,250.00,107.00                          
9,8380.00,9296.00,-9316.00,27.87,-406.00,-151.00,-135.00                        
10,8556.00,9384.00,-9140.00,27.97,-1594.00,1143.00,68.00                        
11,8528.00,9356.00,-9092.00,27.97,-1489.00,1028.00,-36.00                       
12,8568.00,9428.00,-89.00,80.00,27.97,-870.00,-74.00,-268.00
13,8636.00,9588.00,-9084.00,27.97,-2588.00,1715.00,-135.00
14,9388.00,10808.00,-7656.00,27.97,287.00,-3252.00,-295.00
15,8452.00,9696.00,-9028.00,27.92,-1156.00,-497.00,221.00
16,8260.00,9416.00,-9476.00,27.97,-2322.00,3969.00,511.00
17,9596.00,10280.00,-7548.00,27.92,-4883.00,1927.00,1696.00
18,9416.00,9636.00,-7312.00,28.06,756.00,-764.00,-419.00
19,9172.00,9860.00,-7800.00,27.92,-1650.00,650.00,-215.00
20,9680.00,10996.00,-7912.00,28.01,-551.00,-662.00,-196.00
21,8792.00,10004.00,-8404.00,27.97,951.00,-1214.00,-411.00
22,9120.00,10028.00,-7648.00,27.97,-367.00,-11.00,-144.00
23,9032.00,9844.00,-8304.00,27.97,623.00,-749.00,-228.00
24,9032.00,9888.00,-8140.00,27.97,939.00,-879.00,-297.00
25,9000.00,9732.00,-8316.00,27.97,731.00,-649.00,-273.00
26,8764.00,9852.00,-8720.00,27.92,539.00,-721.00,-319.00
27,8872.00,9616.00,-8432.00,27.92,1261.00,-1667.00,-574.00
28,8576.00,9608.00,-8872.00,27.92,1292.00,-1364.00,-824.00
29,8448.00,9640.00,-10180.00,28.06,-3613.00,4368.00,1126.00
30,9788.00,9420.00,-6672.00,27.97,-2932.00,-1200.00,398.00
31,9144.00,9760.00,-8596.00,28.01,2335.00,-2631.00,-1128.00
32,8368.00,9404.00,-7084.00,27.97,-475.00,470.00,-201.00
33,9128.00,9668.00,-8588.00,27.92,3283.00,-911.00,-1449.00
34,8668.00,9536.00,-9740.00,27.97,-1015.00,-436.00,1750.00
35,8304.00,9136.00,-8972.00,27.97,-469.00,381.00,-234.00
36,4040.00,7748.00,-6372.00,27.97,760.00,-541.00,-915.00
37,8164.00,9240.00,-8700.00,27.97,-881.00,398.00,8.00
38,8336.00,9348.00,-9292.00,27.97,551.00,-1310.00,-331.00
39,8220.00,9360.00,-9532.00,27.87,16.00,158.00,185.00
40,8368.00,9344.00,-9480.00,27.87,-24.00,232.00,-125.00
41,8392.00,9296.00,-9188.00,27.97,-1180.00,994.00,104.00
42,8456.00,9288.00,-9272.00,27.92,-356.00,-204.00,-129.00
43,8412.00,9308.00,-9044.00,28.01,-153.00,-497.00,-211.00
44,8416.00,9376.00,-9516.00,27.97,-573.00,72.00,-93.00
45,8488.00,9436.00,-9336.00,28.01,-893.00,687.00,44.00
46,8336.00,9164.00,-9352.00,27.92,-949.00,368.00,165.00
47,8600.00,9500.00,-8892.00,28.01,-361.00,-198.00,-39.00
48,8564.00,9356.00,-9268.00,27.92,-710.00,221.00,-9.00
49,8720.00,9312.00,-8804.00,27.92,-466.00,-219.00,76.00
50,8672.00,9376.00,-9016.00,27.92,-446.00,-1.00,-63.00
51,8692.00,9400.00,-8960.00,27.97,-417.00,-85.00,-61.00
52,8488.00,9404.00,-9040.00,27.92,-236.00,-300.00,-188.00
53,8604.00,9260.00,-8940.00,27.92,-19.00,-486.00,-145.00
54,8832.00,9340.00,-9172.00,27.92,-86.00,-532.00,-231.00
55,8544.00,9288.00,-9100.00,27.92,-290.00,-233.00,-150.00
56,8684.00,9436.00,-9080.00,28.01,-87.00,-416.00,-184.00
57,8644.00,9316.00,-9164.00,28.01,-464.00,-76.00,-122.00
58,8624.00,9284.00,-8944.00,28.01,-120.00,-421.00,-198.00
59,8436.00,9164.00,-9152.00,27.92,-89.00,-479.00,-172.00
60,8552.00,9296.00,-9192.00,27.97,-120.00,-359.00,-179.00
61,8548.00,9244.00,-9132.00,27.92,-150.00,-429.00,-158.00
62,8628.00,9300.00,-9392.00,27.92,202.00,-887.00,-252.00
63,8420.00,9076.00,-9412.00,28.01,441.00,-980.00,-221.00
64,8396.00,9112.00,-9480.00,27.97,0.00,-423.00,-155.00
65,8272.00,9048.00,-9424.00,27.97,-166.00,-373.00,-188.00
66,8428.00,9012.00,-9612.00,27.97,261.00,-839.00,-254.00
67,8336.00,8892.00,-9680.00,27.97,-19.00,-378.00,-224.00
68,8304.00,9084.00,-9572.00,28.06,-39.00,-391.00,-201.00
69,8184.00,9044.00,-9752.00,27.97,-349.00,-92.00,-157.00
70,8280.00,8936.00,-9728.00,27.92,-28.00,-422.00,-199.00
71,8268.00,9032.00,-9620.00,27.97,-235.00,-344.00,-162.00
72,8156.00,8908.00,-9660.00,28.01,46.00,-425.00,-232.00
73,8184.00,8872.00,-9588.00,27.87,-396.00,-154.00,-185.00
74,8116.00,8912.00,-9740.00,27.87,-65.00,-385.00,-166.00
75,8172.00,8860.00,-9828.00,27.97,-274.00,-198.00,-161.00
76,8132.00,8876.00,-9900.00,27.97,-166.00,-322.00,-222.00
77,8092.00,8916.00,-9772.00,27.97,-304.00,-144.00,-171.00
78,8080.00,8828.00,-9872.00,28.01,-176.00,-358.00,-221.00
79,8088.00,8864.00,-9748.00,27.97,-233.00,-234.00,-159.00
80,7984.00,8908.00,-9936.00,28.01,-128.00,-333.00,-200.00
81,8160.00,8740.00,-9804.00,27.82,-239.00,-223.00,-154.00
82,8032.00,8796.00,-10084.00,27.92,-286.00,-185.00,-154.00
83,7948.00,8732.00,-9892.00,27.97,-231.00,-261.00,-155.00
84,8072.00,8848.00,-10056.00,27.97,-310.00,-198.00,-162.00
85,8208.00,8852.00,-9928.00,27.97,-99.00,-452.00,-177.00
86,8096.00,8864.00,-9820.00,27.97,-312.00,-254.00,-184.00
87,7980.00,8756.00,-9936.00,27.97,-89.00,-489.00,-149.00
88,7964.00,8800.00,-10124.00,27.92,-521.00,73.00,-123.00
89,8112.00,8764.00,-9884.00,27.92,-312.00,-182.00,-157.00
90,8076.00,8864.00,-9964.00,27.92,-491.00,-14.00,-171.00
91,8012.00,8748.00,-10088.00,28.06,-350.00,-68.00,-125.00
92,8036.00,8708.00,-10036.00,28.01,-258.00,-329.00,-151.00
93,7984.00,8768.00,-9932.00,27.92,-299.00,-199.00,-131.00
94,8060.00,8780.00,-9848.00,28.01,-117.00,-426.00,-224.00
95,7896.00,8688.00,-9996.00,28.01,-130.00,-473.00,-199.00
96,7948.00,8764.00,-10088.00,28.01,-99.00,-379.00,-215.00
97,7964.00,8720.00,-10224.00,28.01,-79.00,-496.00,-212.00
98,7908.00,8736.00,-9996.00,27.92,-306.00,-137.00,-126.00
99,7812.00,8724.00,-10128.00,28.01,-286.00,-171.00,-128.00
100,8008.00,8772.00,-10104.00,27.97,-331.00,-127.00,-153.00
101,7764.00,8680.00,-10192.00,27.97,-431.00,-19.00,-119.00
102,7940.00,8720.00,-10092.00,27.92,-354.00,-110.00,-110.00
103,7852.00,8676.00,-10164.00,27.92,-246.00,-423.00,-169.00
104,7836.00,8728.00,-10064.00,27.97,-190.00,-349.00,-173.00
105,7768.00,8644.00,-10072.00,27.92,-422.00,-104.00,-122.00
106,7904.00,8680.00,-10280.00,27.97,-467.00,-73.00,-76.00
107,7904.00,8616.00,-10148.00,27.97,-535.00,78.00,-69.00
108,8084.00,8688.00,-10000.00,28.06,-453.00,232.00,-46.00
109,7888.00,8692.00,-10236.00,27.97,-589.00,448.00,-32.00
110,8124.00,8692.00,-9844.00,27.97,-826.00,404.00,-59.00
111,8000.00,8716.00,-9912.00,27.97,-468.00,-60.00,-123.00
112,8116.00,8736.00,-9916.00,27.97,-590.00,303.00,-65.00
113,8176.00,8776.00,-9912.00,27.97,-696.00,211.00,-121.00
114,8180.00,8780.00,-9844.00,27.97,-274.00,-249.00,-162.00
115,8108.00,8644.00,-9712.00,28.11,-569.00,102.00,-85.00
116,8096.00,8772.00,-9832.00,27.97,-373.00,-72.00,-130.00
117,8136.00,8772.00,-9916.00,28.01,-355.00,-27.00,-90.00
118,8184.00,8908.00,-9672.00,27.97,-319.00,-140.00,-135.00
119,8112.00,8688.00,-9656.00,27.92,244.00,-901.00,-252.00
120,8172.00,8752.00,-9944.00,27.92,-277.00,-328.00,-133.00
121,8276.00,8768.00,-10060.00,28.01,32.00,-630.00,-170.00
122,8168.00,8692.00,-10024.00,28.01,-300.00,-206.00,-109.00
123,8116.00,8704.00,-9952.00,27.97,98.00,-708.00,-181.00
124,7996.00,8656.00,-9980.00,27.97,-76.00,-578.00,-139.00
125,8020.00,8628.00,-10068.00,27.97,-183.00,-422.00,-172.00
126,7892.00,8576.00,-10124.00,28.01,-366.00,-102.00,-123.00
127,7936.00,8608.00,-10120.00,27.97,39.00,-629.00,-146.00
128,7912.00,8572.00,-10004.00,27.87,-338.00,-276.00,-137.00
129,7888.00,8696.00,-10252.00,27.97,-204.00,-348.00,-124.00
130,7988.00,8608.00,-10004.00,27.92,-283.00,-259.00,-144.00
131,7908.00,8576.00,-9932.00,28.06,-390.00,-165.00,-117.00
132,7980.00,8552.00,-10144.00,28.01,-490.00,-37.00,-116.00
133,7836.00,8640.00,-10148.00,28.01,-502.00,15.00,-78.00
134,7864.00,8552.00,-10124.00,28.01,-336.00,-247.00,-118.00
135,7940.00,8588.00,-9860.00,27.97,-565.00,134.00,-98.00
136,7956.00,8700.00,-10200.00,28.01,-337.00,-139.00,-126.00
137,7928.00,8668.00,-10168.00,27.97,-590.00,44.00,-112.00
138,7992.00,8560.00,-10000.00,28.06,-142.00,-363.00,-184.00
139,7812.00,8644.00,-9992.00,28.01,-349.00,-244.00,-153.00
140,7872.00,8580.00,-9888.00,28.06,-358.00,-200.00,-144.00
141,7908.00,8708.00,-10060.00,28.06,-360.00,-161.00,-116.00
142,7924.00,8540.00,-10184.00,28.01,-205.00,-375.00,-173.00
143,7940.00,8556.00,-10208.00,28.06,-280.00,-228.00,-100.00
144,8000.00,8628.00,-10148.00,27.97,-112.00,-484.00,-150.00
145,7944.00,8648.00,-10128.00,27.97,-401.00,-204.00,-65.00
146,7816.00,8648.00,-10116.00,27.97,-246.00,-376.00,-166.00
147,8004.00,8536.00,-10068.00,28.01,-275.00,-123.00,-132.00
148,7836.00,8568.00,-10184.00,28.06,-375.00,-127.00,-140.00
149,7852.00,8620.00,-10212.00,28.01,-287.00,-237.00,-152.00
150,7956.00,8532.00,-10160.00,28.06,-474.00,-65.00,-120.00
151,7876.00,8608.00,-10216.00,28.06,-370.00,-74.00,-151.00
152,7900.00,8600.00,-10256.00,28.01,-466.00,-80.00,-98.00
153,7860.00,8572.00,-10076.00,28.01,-573.00,-96.00,-55.00
154,7912.00,8648.00,-10100.00,28.01,-453.00,-201.00,10.00
155,7908.00,8612.00,-10160.00,27.97,-241.00,-617.00,-68.00
156,7884.00,8540.00,-10240.00,28.01,-5.00,-645.00,-105.00
157,7752.00,8552.00,-10384.00,28.01,103.00,-336.00,-158.00
158,7868.00,8492.00,-10308.00,28.01,-626.00,382.00,-80.00
159,7880.00,8540.00,-10116.00,28.01,-378.00,-371.00,-169.00
160,7904.00,8408.00,-10352.00,27.97,453.00,-1065.00,-205.00
161,7648.00,8392.00,-10452.00,28.01,-216.00,-116.00,-113.00
162,7636.00,8376.00,-10488.00,28.06,-450.00,-155.00,-47.00
163,7912.00,8408.00,-10280.00,27.97,-133.00,-634.00,104.00
164,8092.00,8148.00,-10376.00,28.11,-228.00,-372.00,-280.00
165,7720.00,8372.00,-10432.00,27.97,-1112.00,581.00,-156.00
166,7856.00,8464.00,-10512.00,28.06,-796.00,533.00,-22.00
167,7828.00,8488.00,-10268.00,28.01,-165.00,-338.00,-163.00
168,7900.00,8508.00,-10252.00,28.11,-278.00,-46.00,-169.00
169,7968.00,8500.00,-10348.00,27.97,-366.00,-29.00,-174.00
170,7860.00,8504.00,-10148.00,28.01,-476.00,-113.00,-148.00
171,7884.00,8464.00,-10404.00,28.11,-215.00,-31.00,-210.00
172,7976.00,8536.00,-10328.00,28.06,-398.00,10.00,-144.00
173,7940.00,8520.00,-10112.00,28.06,-839.00,439.00,-65.00
174,8096.00,8524.00,-10124.00,28.06,-418.00,-172.00,-146.00
175,8064.00,8556.00,-10172.00,28.01,-9.00,-442.00,-227.00
176,8076.00,8484.00,-10088.00,28.11,-429.00,20.00,-119.00
177,7964.00,8580.00,-10072.00,27.97,-218.00,-232.00,-142.00
178,8060.00,8480.00,-10140.00,28.06,89.00,-580.00,-163.00
179,8044.00,8480.00,-10360.00,28.01,-487.00,100.00,-119.00
180,7972.00,8560.00,-10216.00,27.92,-690.00,250.00,-112.00
181,7996.00,8484.00,-10152.00,28.11,-119.00,-666.00,-230.00
182,7816.00,8448.00,-10328.00,28.06,-486.00,29.00,-98.00
183,8092.00,8516.00,-10088.00,28.06,-505.00,-123.00,-114.00
184,7904.00,8500.00,-10080.00,28.06,239.00,-778.00,-159.00
185,7776.00,8380.00,-10356.00,28.01,496.00,-752.00,-131.00
186,7780.00,8356.00,-10444.00,28.11,-124.00,-192.00,-139.00
187,8000.00,8508.00,-10432.00,28.06,-1065.00,409.00,-104.00
188,8028.00,8520.00,-10284.00,27.92,-968.00,303.00,-25.00
189,7936.00,8504.00,-10024.00,28.01,-1061.00,538.00,-171.00
190,7924.00,8456.00,-10044.00,28.06,745.00,-1357.00,-85.00
191,8008.00,8440.00,-10404.00,27.97,-563.00,165.00,-113.00
192,7944.00,8424.00,-9952.00,28.06,-962.00,-13.00,-144.00
193,7936.00,8424.00,-10160.00,28.01,608.00,-910.00,-228.00
194,7964.00,8384.00,-10620.00,28.01,225.00,-472.00,-276.00
195,7920.00,8372.00,-10380.00,28.01,-827.00,410.00,-103.00
196,7916.00,8352.00,-10156.00,28.01,-392.00,-483.00,43.00
197,7880.00,8376.00,-10264.00,28.15,-585.00,-258.00,-202.00
198,7948.00,8444.00,-10220.00,27.97,-329.00,-103.00,-167.00
199,7888.00,8468.00,-10384.00,28.01,-235.00,-362.00,-103.00
200,7820.00,8420.00,-10312.00,28.06,-404.00,-216.00,-121.00
201,7872.00,8452.00,-10296.00,28.01,-397.00,-83.00,-139.00
202,8052.00,8424.00,-10360.00,28.11,-322.00,-151.00,-141.00
203,7952.00,8432.00,-10492.00,28.06,-67.00,-165.00,-98.00
204,7840.00,8328.00,-10516.00,28.15,17.00,-459.00,-80.00
205,7892.00,8308.00,-10312.00,28.06,-420.00,-208.00,-153.00
206,7836.00,8256.00,-10416.00,28.01,-688.00,104.00,-75.00
207,7848.00,8376.00,-10432.00,28.11,-202.00,-383.00,-113.00
208,7896.00,8372.00,-10312.00,28.06,-606.00,245.00,-101.00
209,7872.00,8380.00,-10456.00,28.06,-90.00,-396.00,-105.00
210,7900.00,8312.00,-10264.00,28.11,-90.00,-373.00,-53.00
211,7824.00,8232.00,-10396.00,28.11,-241.00,-252.00,-115.00
212,7736.00,8268.00,-10444.00,28.11,-60.00,-510.00,-133.00
213,7808.00,8172.00,-10368.00,27.97,-434.00,203.00,-72.00
214,7944.00,8272.00,-10312.00,28.06,-279.00,38.00,-75.00
215,7876.00,8300.00,-10480.00,28.06,-295.00,-52.00,-86.00
216,7960.00,8280.00,-10596.00,28.06,-446.00,45.00,-98.00
217,7912.00,8456.00,-10236.00,28.11,-507.00,82.00,-118.00
218,7832.00,8368.00,-10356.00,28.11,-410.00,-193.00,-148.00
219,7948.00,8308.00,-10452.00,28.06,-214.00,-96.00,-218.00.11,-370.00,-174.00,-139.00
303,8284.00,8824.00,-9576.00,28.06,-270.00,-395.00,-178.00
304,8380.00,8892.00,-9612.00,28.06,-260.00,-407.00,-214.00
305,8328.00,8768.00,-9632.00,28.06,240.00,-529.00,-294.00
306,8364.00,8852.00,-9808.00,28.20,252.00,-550.00,-253.00
307,8196.00,8796.00,-9752.00,28.11,-337.00,-463.00,-169.00
308,8264.00,8840.00,-9788.00,28.20,-251.00,-450.00,-164.00
309,8124.00,8700.00,-9780.00,28.06,370.00,-1015.00,-274.00
310,8088.00,8616.00,-10096.00,28.06,-417.00,-195.00,-120.00
311,8208.00,8688.00,-9908.00,28.11,-154.00,-837.00,-226.00
312,7912.00,8684.00,-9988.00,28.15,308.00,-937.00,-189.00
313,7956.00,8680.00,-10048.00,28.15,-588.00,-132.00,-144.00
314,8096.00,8612.00,-9832.00,28.11,-564.00,-139.00,-132.00
315,7984.00,8668.00,-10000.00,28.15,-67.00,-569.00,-178.00
316,7968.00,8612.00,-10072.00,28.06,-266.00,-67.00,-142.00
317,8024.00,8648.00,-10116.00,28.20,-535.00,67.00,-139.00
318,7968.00,8676.00,-10172.00,28.11,-237.00,-151.00,-153.00
319,7968.00,8672.00,-10120.00,28.15,-750.00,364.00,-3.00
320,7912.00,8712.00,-10164.00,28.15,-422.00,-24.00,-128.00
321,8044.00,8644.00,-9852.00
Sample,aX,aY,az,Temp,gX,gY,gz
1,8072.00,8760.00,-9832.00,28.15,-614.00,172.00,-134.00
2,8036.00,8712.00,-9832.00,28.15,-645.00,218.00,-148.00
3,8124.00,8816.00,-9700.00,28.20,-648.00,196.00,-159.00
4,8284.00,8816.00,-9752.00,28.20,-799.00,543.00,-168.00
5,8348.00,8812.00,-9648.00,28.25,-429.00,-24.00,-192.00
6,8268.00,8796.00,-9724.00,28.15,18.00,-460.00,-220.00
7,8248.00,8792.00,-9708.00,28.20,-703.00,223.00,-156.00
8,8300.00,8824.00,-9724.00,28.15,-444.00,3.00,-186.00
9,8304.00,8892.00,-9692.00,28.25,-786.00,327.00,-129.00
10,8448.00,8880.00,-9624.00,28.15,-1354.00,941.00,-242.00
11,8576.00,9052.00,-9144.00,28.15,-1284.00,1132.00,-147.00
12,8428.00,8924.00,-9388.00,28.20,177.00,-974.00,-349.00
13,8552.00,9016.00,-9256.00,28.15,-722.00,182.00,-132.00
14,8588.00,9092.00,-9388.00,28.20,-312.00,-191.00,-132.00
15,8532.00,9064.00,-9388.00,28.11,-782.00,70.00,-168.00
16,8588.00,9044.00,-9508.00,28.15,-634.00,309.00,-186.00
17,8512.00,9056.00,-9156.00,28.25,-928.00,424.00,-123.00
18,8696.00,9172.00,-9196.00,28.15,-695.00,130.00,-117.00
19,8680.00,9196.00,-9228.00,28.20,-450.00,-141.00,-192.00
20,8644.00,9132.00,-9056.00,28.15,-594.00,-148.00,-141.00
21,8632.00,9296.00,-9272.00,28.15,-96.00,-525.00,-145.00
22,8772.00,9172.00,-9096.00,28.15,-414.00,-233.00,-154.00
23,8544.00,9148.00,-9124.00,28.25,128.00,-539.00,-196.00
24,8636.00,9160.00,-9240.00,28.15,-274.00,-55.00,-157.00
25,8664.00,9228.00,-9168.00,28.15,-650.00,221.00,-69.00
26,8632.00,9204.00,-9072.00,28.20,-305.00,-308.00,-168.00
27,8720.00,9232.00,-9176.00,28.15,-454.00,-202.00,-135.00
28,8620.00,9144.00,-9352.00,28.25,-98.00,-477.00,-187.00
29,8640.00,9112.00,-9032.00,28.20,-157.00,-474.00,-185.00
30,8580.00,9212.00,-9184.00,28.06,-479.00,-45.00,-116.00
31,8684.00,9168.00,-9236.00,28.20,-251.00,-318.00,-162.00
32,8648.00,9176.00,-9284.00,28.15,-217.00,-264.00,-172.00
33,8576.00,9204.00,-9284.00,28.15,-486.00,-84.00,-121.00
34,8524.00,9156.00,-9236.00,28.15,-273.00,-424.00,-184.00
35,8576.00,9124.00,-9252.00,28.25,-474.00,-155.00,-167.00
36,8468.00,9240.00,-9168.00,28.15,-4.00,-352.00,-125.00
37,8568.00,9164.00,-9172.00,28.15,-518.00,19.00,-138.00
38,8564.00,9068.00,-9128.00,28.11,-239.00,-250.00,-146.00
39,8676.00,9284.00,-9116.00,28.15,-281.00,-219.00,-166.00
40,8616.00,9192.00,-9308.00,28.25,-459.00,-47.00,-135.00
41,8660.00,9184.00,-9064.00,28.15,-314.00,-186.00,-166.00
42,8688.00,9248.00,-9288.00,28.15,-363.00,-110.00,-128.00
43,8608.00,9156.00,-9280.00,28.15,-252.00,-268.00,-198.00
44,8620.00,9148.00,-9184.00,28.20,-160.00,-320.00,-174.00
45,8540.00,9200.00,-9156.00,28.15,-64.00,-317.00,-180.00
46,8460.00,9076.00,-9500.00,28.15,-69.00,-391.00,-177.00
47,8548.00,9132.00,-9448.00,28.15,-422.00,-107.00,-138.00
48,8516.00,9036.00,-9420.00,28.20,-214.00,-340.00,-168.00
49,8576.00,9096.00,-9288.00,28.15,-446.00,-74.00,-118.00
50,8468.00,9116.00,-9316.00,28.15,72.00,-513.00,-181.00
51,8552.00,9064.00,-9396.00,28.25,-87.00,-533.00,-198.00
52,8416.00,9048.00,-9544.00,28.25,46.00,-547.00,-171.00
53,8428.00,8960.00,-9500.00,28.11,-77.00,-372.00,-127.00
54,8360.00,8960.00,-9620.00,28.11,-112.00,-526.00,-153.00
55,8268.00,8940.00,-9764.00,28.20,-59.00,-496.00,-189.00
56,8356.00,8876.00,-9480.00,28.25,453.00,-877.00,-243.00
57,8372.00,8940.00,-9700.00,28.11,-549.00,141.00,-63.00
58,8328.00,8848.00,-9636.00,28.15,-228.00,-456.00,-131.00
59,8296.00,8888.00,-9680.00,28.25,-133.00,-574.00,-85.00
60,8248.00,8904.00,-9740.00,28.25,652.00,-1075.00,-158.00
61,8080.00,8792.00,-9972.00,28.15,606.00,-1085.00,-225.00
62,8052.00,8608.00,-10008.00,28.15,-604.00,45.00,-57.00
63,8220.00,8776.00,-9920.00,28.29,-356.00,-191.00,-146.00
64,8104.00,8676.00,-9952.00,28.15,-560.00,48.00,-91.00
65,8084.00,8700.00,-9904.00,28.29,-187.00,-298.00,-155.00
66,8132.00,8640.00,-10024.00,28.20,-309.00,-185.00,-157.00
67,8172.00,8704.00,-9872.00,28.20,-865.00,371.00,-72.00
68,8176.00,8716.00,-9708.00,28.11,-635.00,142.00,-95.00
69,8236.00,8836.00,-9920.00,28.25,-362.00,-116.00,-122.00
70,8176.00,8780.00,-9616.00,28.25,-632.00,27.00,-133.00
71,8292.00,8760.00,-9792.00,28.15,-491.00,102.00,-116.00
72,8416.00,8888.00,-9880.00,28.25,-382.00,-126.00,-132.00
73,8300.00,8832.00,-9804.00,28.25,-338.00,-139.00,-151.00
74,8296.00,8932.00,-9624.00,28.25,-786.00,239.00,-59.00
75,8280.00,8868.00,-9660.00,28.20,-131.00,-475.00,-211.00
76,8352.00,8852.00,-9532.00,28.15,-691.00,121.00,-97.00
77,8368.00,8892.00,-9744.00,28.20,-285.00,-250.00,-148.00
78,8472.00,8768.00,-9636.00,28.20,-466.00,-77.00,-119.00
79,8388.00,8864.00,-9476.00,28.20,-576.00,7.00,-119.00
80,8284.00,8828.00,-9448.00,28.25,-321.00,-246.00,-181.00
81,8448.00,8864.00,-9736.00,28.29,-699.00,86.00,-158.00
82,8420.00,8872.00,-9756.00,28.06,-319.00,-153.00,-157.00
83,8260.00,8908.00,-9584.00,28.25,-565.00,60.00,-139.00
84,8444.00,8872.00,-9560.00,28.25,-352.00,-171.00,-147.00
85,8584.00,8980.00,-9452.00,28.25,-475.00,-17.00,-129.00
86,8496.00,8968.00,-9532.00,28.15,-228.00,-239.00,-166.00
87,8540.00,8964.00,-9408.00,28.25,-537.00,6.00,-128.00
88,8448.00,8920.00,-9648.00,28.29,-435.00,-80.00,-136.00
89,8392.00,8960.00,-9372.00,28.15,-377.00,-155.00,-132.00
90,8572.00,9012.00,-9624.00,28.20,-242.00,-274.00,-154.00
91,8412.00,8996.00,-9552.00,28.20,-142.00,-324.00,-157.00
92,8484.00,8904.00,-9516.00,28.11,-374.00,-161.00,-137.00
93,8536.00,8944.00,-9680.00,28.20,-577.00,139.00,-111.00
94,8484.00,9008.00,-9316.00,28.29,-429.00,-196.00,-112.00
95,8468.00,8892.00,-9468.00,28.29,-155.00,-428.00,-178.00
96,8436.00,8972.00,-9424.00,28.20,-222.00,-265.00,-128.00
97,8436.00,8952.00,-9596.00,28.20,-199.00,-239.00,-164.00
98,8448.00,8904.00,-9748.00,28.29,-17.00,-468.00,-208.00
99,8404.00,8840.00,-9576.00,28.29,-585.00,-3.00,-118.00
100,8472.00,8872.00,-9584.00,28.20,-385.00,-258.00,-160.00
101,8452.00,8888.00,-9600.00,28.20,27.00,-465.00,-204.00
102,8456.00,8932.00,-9616.00,28.11,-417.00,-133.00,-139.00
103,8428.00,8844.00,-9784.00,28.25,-650.00,195.00,-102.00
104,8468.00,8952.00,-9364.00,28.15,-1159.00,214.00,-125.00
105,8480.00,9060.00,-9372.00,28.11,156.00,-654.00,-204.00
106,8524.00,8964.00,-9580.00,28.29,-817.00,321.00,-95.00
107,8492.00,9012.00,-9480.00,28.29,-695.00,116.00,-108.00
108,8440.00,9000.00,-9536.00,28.20,-1038.00,523.00,37.00
109,8612.00,9104.00,-9048.00,28.20,-1240.00,552.00,5.00
110,8780.00,9180.00,-8968.00,28.15,-335.00,-445.00,-72.00
111,8664.00,9136.00,-9392.00,28.29,-518.00,-118.00,-168.00
112,8804.00,9140.00,-9132.00,28.20,-246.00,-342.00,-168.00
113,8600.00,9136.00,-9244.00,28.25,-524.00,-17.00,-109.00
114,8648.00,9080.00,-9184.00,28.25,-111.00,-372.00,-211.00
115,8708.00,9104.00,-9160.00,28.20,-29.00,-359.00,-160.00
116,8552.00,9116.00,-9344.00,28.29,-76.00,-470.00,-224.00
117,8608.00,9108.00,-9304.00,28.15,-87.00,-396.00,-178.00
118,8608.00,9128.00,-9204.00,28.25,-311.00,-160.00,-105.00
119,8644.00,9060.00,-9184.00,28.20,-401.00,-58.00,-112.00
120,8640.00,9080.00,-9260.00,28.20,-231.00,-275.00,-150.00
121,8716.00,9064.00,-9304.00,28.25,-326.00,-157.00,-100.00
122,8664.00,8976.00,-9336.00,28.25,59.00,-711.00,-189.00
123,8596.00,8924.00,-9364.00,28.25,-344.00,-263.00,-147.00
124,8512.00,8992.00,-9220.00,28.20,-606.00,-74.00,-146.00
125,8484.00,8976.00,-9404.00,28.20,-183.00,-395.00,-187.00
126,8460.00,9068.00,-9404.00,28.25,-725.00,-76.00,-120.00
127,8524.00,9096.00,-9348.00,28.25,-180.00,-485.00,-151.00
128,8556.00,9028.00,-9572.00,28.20,-390.00,-184.00,-200.00
129,8564.00,8968.00,-9284.00,28.20,-189.00,-314.00,-195.00
130,8332.00,8884.00,-9580.00,28.34,-95.00,-238.00,-159.00
131,8372.00,8992.00,-9532.00,28.15,-318.00,-192.00,-147.00
132,8500.00,8980.00,-9580.00,28.11,-352.00,-172.00,-107.00
133,8524.00,8956.00,-9424.00,28.25,-80.00,-689.00,-202.00
134,8460.00,8912.00,-9728.00,28.25,-459.00,-169.00,-145.00
135,8376.00,9008.00,-9476.00,28.25,-293.00,-186.00,-181.00
136,8440.00,9060.00,-9404.00,28.25,-506.00,-151.00,-160.00
137,8420.00,9012.00,-9460.00,28.29,-189.00,-334.00,-156.00
138,8388.00,8976.00,-9548.00,28.25,-444.00,-192.00,-153.00
139,8356.00,9064.00,-9420.00,28.20,-231.00,-184.00,-174.00
140,8456.00,9016.00,-9332.00,28.29,-781.00,32.00,-116.00
141,8392.00,8920.00,-9444.00,28.29,-618.00,45.00,-107.00
142,8460.00,9000.00,-9340.00,28.29,-71.00,-656.00,-176.00
143,8460.00,8956.00,-9484.00,28.29,-116.00,-80.00,-131.00
144,8384.00,8996.00,-9536.00,28.20,-571.00,114.00,-96.00
145,8508.00,8992.00,-9408.00,28.29,-854.00,162.00,-94.00
146,8452.00,9060.00,-9452.00,28.29,-645.00,-614.00,-217.00
147,7784.00,9564.00,-9588.00,28.29,-1317.00,-2285.00,-205.00
148,9276.00,9056.00,-9452.00,28.25,-801.00,-1831.00,-71.00
149,7948.00,8944.00,-9880.00,28.29,-543.00,-674.00,-200.00
150,8108.00,8908.00,-9480.00,28.20,-337.00,-455.00,-266.00
151,8144.00,9260.00,-9632.00,28.25,-146.00,-4.00,40.00
152,8168.00,9424.00,-9848.00,28.29,-614.00,208.00,108.00
153,8068.00,9232.00,-9308.00,28.25,-771.00,-94.00,-13.00
154,8196.00,9316.00,-9324.00,28.34,-1528.00,939.00,232.00
155,8436.00,9580.00,-9768.00,28.39,-2561.00,-338.00,920.00
156,7860.00,10092.00,-8704.00,28.29,-449.00,-1776.00,111.00
157,8316.00,9372.00,-9176.00,28.25,2572.00,-1628.00,-1065.00
158,9112.00,9316.00,-8744.00,28.34,636.00,-887.00,-1381.00
159,6436.00,9500.00,-8920.00,28.25,523.00,-154.00,-587.00
160,7948.00,9472.00,-9668.00,28.25,-607.00,691.00,-203.00
161,8104.00,9452.00,-9376.00,28.20,-1087.00,876.00,-203.00
162,8368.00,9468.00,-9396.00,28.34,72.00,-582.00,-332.00
163,8188.00,9476.00,-9584.00,28.25,-1605.00,1761.00,180.00
164,8196.00,9364.00,-8656.00,28.25,-1355.00,604.00,211.00
165,8440.00,9440.00,-9008.00,28.34,1515.00,-1626.00,-370.00
166,9256.00,9412.00,-9168.00,28.39,-1387.00,963.00,-151.00
167,8428.00,9476.00,-8980.00,28.25,-676.00,620.00,-136.00
168,8348.00,9476.00,-9508.00,28.25,-593.00,-246.00,-344.00
169,8348.00,9484.00,-8916.00,28.29,-372.00,-434.00,-370.00
170,8284.00,9592.00,-9048.00,28.29,-11.00,-233.00,-217.00
171,8628.00,9512.00,-9112.00,28.25,-831.00,-94.00,-136.00
172,7440.00,9096.00,-8440.00,28.25,950.00,-2259.00,-534.00
173,8684.00,9704.00,-9664.00,28.39,-2158.00,1211.00,-9.00
174,8080.00,9504.00,-9328.00,28.20,250.00,93.00,263.00
175,8540.00,9488.00,-9164.00,28.25,-169.00,-1214.00,-86.00
176,8444.00,9320.00,-9500.00,28.29,3321.00,-3458.00,-460.00
177,11092.00,10396.00,-11768.00,28.25,-4940.00,6055.00,603.00
178,8320.00,9588.00,-7000.00,28.29,553.00,-1356.00,-223.00
179,12552.00,8868.00,-8240.00,28.25,-1948.00,4063.00,-1782.00
180,8932.00,9568.00,-8520.00,28.25,-312.00,-73.00,-121.00
181,9268.00,9772.00,-7832.00,28.34,1966.00,-2961.00,-1350.00
182,8528.00,9464.00,-8692.00,28.34,3186.00,-4746.00,-1569.00
183,8512.00,8960.00,-9972.00,28.25,-1488.00,4195.00,-700.00
184,6912.00,9300.00,-8188.00,28.25,-115.00,-325.00,-124.00
185,8128.00,9540.00,-9088.00,28.34,-503.00,483.00,106.00
186,8028.00,9560.00,-10888.00,28.34,-1745.00,3233.00,640.00
187,7780.00,9776.00,-9872.00,28.29,-7527.00,7991.00,1838.00
188,9092.00,9764.00,-7868.00,28.34,-672.00,-976.00,-188.00
189,9052.00,9676.00,-7660.00,28.34,779.00,-1469.00,-579.00
190,9200.00,9816.00,-9128.00,28.29,870.00,-2708.00,-1178.00
191,8544.00,9592.00,-9060.00,28.25,2765.00,-3267.00,-1148.00
192,7120.00,9004.00,-9044.00,28.34,232.00,-300.00,-47.00
193,8332.00,9504.00,-9340.00,28.20,-3841.00,5040.00,1252.00
194,7820.00,9964.00,-7824.00,28.29,-4593.00,158.00,1865.00
195,8940.00,9744.00,-8276.00,28.39,923.00,-619.00,-343.00
196,9652.00,9800.00,-9020.00,28.20,-510.00,-966.00,-911.00
197,8592.00,9708.00,-8896.00,28.34,2186.00,-3034.00,-860.00
198,8512.00,9564.00,-8828.00,28.29,-1443.00,868.00,99.00
199,9488.00,9644.00,-9440.00,28.29,-862.00,-86.00,-550.00
200,8828.00,9616.00,-8252.00,28.25,51.00,-416.00,-299.00
201,12364.00,10936.00,-9984.00,28.29,1487.00,-1809.00,-808.00
202,8208.00,9304.00,-7756.00,28.39,323.00,-661.00,-320.00
203,8636.00,9528.00,-9708.00,28.29,2898.00,-2593.00,-938.00
204,7904.00,9508.00,-9368.00,28.25,-2000.00,1209.00,-265.00
205,8388.00,9516.00,-9020.00,28.39,1932.00,-1940.00,-972.00
206,7572.00,9320.00,-9984.00,28.34,-600.00,372.00,-251.00
207,3156.00,8152.00,-7324.00,28.34,-1327.00,787.00,433.00
208,8072.00,9380.00,-9456.00,28.29,-104.00,-105.00,-311.00
209,12292.00,9620.00,-9748.00,28.39,-2174.00,1568.00,-680.00
210,8408.00,9396.00,-8620.00,28.39,229.00,-669.00,-196.00
211,7984.00,10152.00,-9512.00,28.29,-235.00,-526.00,591.00
212,8048.00,9356.00,-9112.00,28.34,-1754.00,189.00,-341.00
213,8228.00,9628.00,-8680.00,28.25,-2543.00,1737.00,39.00
214,8292.00,9876.00,-9000.00,28.34,-346.00,875.00,746.00
215,8608.00,9640.00,-8944.00,28.25,250.00,-1340.00,-277.00
216,8268.00,9492.00,-8920.00,28.29,1932.00,-2415.00,-341.00
217,8348.00,9548.00,-9448.00,28.34,-5524.00,6487.00,1369.00
218,9088.00,9580.00,-7712.00,28.34,-2861.00,-587.00,632.00
219,8856.00,10056.00,-8492.00,28.20,-415.00,-2068.00,222.00
220,8312.00,9960.00,-8032.00,28.34,-881.00,-3036.00,62.00
221,8744.00,9716.00,-8360.00,28.44,1613.00,-1768.00,-765.00
222,9172.00,9040.00,-8024.00,28.29,-19.00,947.00,-1443.00
223,8492.00,10896.00,-8440.00,28.29,-2048.00,2458.00,-55.00
224,13232.00,9032.00,-10172.00,28.25,1094.00,-863.00,-1384.00
225,8140.00,9820.00,-9968.00,28.34,-3159.00,3297.00,838.00
226,9496.00,10180.00,-7604.00,28.29,-301.00,268.00,655.00
227,9092.00,9664.00,-8976.00,28.29,1999.00,-2611.00,-645.00
228,9108.00,9996.00,-8248.00,28.25,-3167.00,2180.00,-409.00
229,8808.00,10124.00,-7716.00,28.39,1505.00,-2548.00,-893.00
230,8872.00,10012.00,-8768.00,28.39,-284.00,20.00,-311.00
231,8260.00,9668.00,-8576.00,28.34,-880.00,742.00,718.00
232,9156.00,10336.00,-7612.00,28.39,-690.00,-1401.00,-90.00
233,8976.00,9924.00,-8584.00,28.34,2102.00,-1746.00,-756.00
234,9408.00,10712.00,-8356.00,28.34,-654.00,-119.00,-468.00
235,8692.00,9928.00,-8920.00,28.39,2161.00,-1603.00,-1139.00
236,8188.00,10064.00,-9292.00,28.39,670.00,-61.00,-693.00
237,8412.00,9736.00,-8952.00,28.29,1379.00,-1594.00,-859.00
238,8336.00,9560.00,-9168.00,28.34,-584.00,124.00,-395.00
239,8172.00,9372.00,-8996.00,28.34,274.00,-867.00,49.00
240,7420.00,9328.00,-8716.00,28.39,1722.00,-1847.00,-279.00
241,8564.00,9260.00,-9356.00,28.34,-1569.00,2061.00,-158.00
242,8312.00,9528.00,-8840.00,28.39,-1969.00,1428.00,0.00
243,8376.00,9572.00,-8960.00,28.39,-424.00,-30.00,-250.00
244,9184.00,9776.00,-9280.00,28.48,-198.00,-860.00,-355.00
245,8392.00,9504.00,-9136.00,28.25,-736.00,797.00,153.00
246,9080.00,9316.00,-7968.00,28.29,-1822.00,749.00,-998.00
247,8644.00,9420.00,-8212.00,28.34,1790.00,-1950.00,-397.00
248,7124.00,11396.00,-8196.00,28.29,-153.00,347.00,477.00
249,8628.00,9544.00,-9040.00,28.39,-1297.00,1116.00,163.00
250,8924.00,9680.00,-8420.00,28.29,-2179.00,1842.00,28.00
251,9020.00,9772.00,-8372.00,28.25,-1553.00,-239.00,-368.00
252,8820.00,9964.00,-8732.00,28.34,-2287.00,725.00,104.00
253,8912.00,9944.00,-8480.00,28.39,-952.00,-39.00,144.00
254,9172.00,10024.00,-8556.00,28.29,-1203.00,-680.00,283.00
255,9092.00,9976.00,-8520.00,28.34,-394.00,-353.00,-199.00
256,9048.00,9904.00,-7876.00,28.25,525.00,-798.00,-282.00
257,8596.00,9868.00,-8948.00,28.25,104.00,-508.00,-94.00
258,9304.00,10108.00,-8820.00,28.29,-1508.00,1706.00,-81.00
259,8892.00,10120.00,-8472.00,28.34,263.00,192.00,-296.00
260,9084.00,11588.00,-8492.00,28.34,-3076.00,-84.00,493.00
261,9380.00,9720.00,-7900.00,28.29,506.00,-1437.00,-437.00
262,9208.00,10072.00,-7840.00,28.39,-997.00,-485.00,13.00
263,9380.00,10012.00,-7352.00,28.34,1139.00,-2870.00,-731.00
264,8764.00,10044.00,-8968.00,28.39,1841.00,-2588.00,-928.00
265,8384.00,9392.00,-8172.00,28.34,-655.00,1942.00,-1052.00
266,9348.00,10136.00,-8644.00,28.39,-42.00,-704.00,-382.00
267,7368.00,12912.00,-9476.00,28.44,2597.00,-3212.00,-932.00
268,15728.00,10804.00,-14332.00,28.39,2376.00,-769.00,-1785.00
269,8696.00,9732.00,-8452.00,28.29,-1434.00,1677.00,293.00
270,8804.00,9712.00,-8456.00,28.34,-416.00,-124.00,-165.00
271,8608.00,9596.00,-8456.00,28.44,-2023.00,1905.00,464.00
272,8780.00,9668.00,-8316.00,28.39,-422.00,365.00,-69.00
273,8988.00,9848.00,-8040.00,28.34,-939.00,188.00,-78.00
274,8884.00,9700.00,-8560.00,28.25,646.00,-1375.00,-449.00
275,9044.00,9652.00,-8324.00,28.25,-363.00,-258.00,-142.00
276,9304.00,9780.00,-8812.00,28.29,449.00,-736.00,-459.00
277,8740.00,9736.00,-8776.00,28.39,-381.00,-148.00,-160.00
278,9172.00,9732.00,-8856.00,28.44,163.00,-747.00,-378.00
279,8724.00,9812.00,-8936.00,28.34,-1480.00,1119.00,187.00
280,8620.00,10284.00,-8348.00,28.44,-3631.00,1966.00,1029.00
281,9380.00,9996.00,-8112.00,28.34,137.00,-820.00,-369.00
282,9216.00,9888.00,-7456.00,28.34,-816.00,-68.00,-181.00
283,8736.00,10012.00,-7564.00,28.34,523.00,-1939.00,-588.00
284,9064.00,10084.00,-8352.00,28.39,240.00,-829.00,-390.00
285,8868.00,10056.00,-8240.00,28.34,-768.00,232.00,20.00
286,9064.00,10060.00,-7972.00,28.34,-666.00,-256.00,-268.00
287,8804.00,9900.00,-8008.00,28.29,-941.00,10.00,-88.00
288,9552.00,9916.00,-8312.00,28.44,656.00,-1163.00,42.00
289,8492.00,10104.00,-8092.00,28.34,553.00,-2146.00,-233.00
290,7960.00,9652.00,-7848.00,28.34,2698.00,-2182.00,-388.00
291,13180.00,11652.00,-10260.00,28.39,359.00,375.00,-1079.00
292,8860.00,9332.00,-7992.00,28.39,-297.00,408.00,-248.00
293,8468.00,9688.00,-8604.00,28.39,1527.00,-1675.00,-842.00
294,8500.00,9676.00,-8980.00,28.44,1204.00,-943.00,-630.00
295,8312.00,9500.00,-9456.00,28.39,-637.00,294.00,-171.00
296,9620.00,9872.00,-9620.00,28.39,-685.00,270.00,-66.00
297,8512.00,9692.00,-9256.00,28.29,-1098.00,290.00,-4.00
298,7460.00,9472.00,-8488.00,28.48,-42.00,-2098.00,215.00
299,9324.00,9608.00,-9472.00,28.44,2210.00,-1718.00,-552.00
300,9228.00,9976.00,-9444.00,28.39,-2485.00,769.00,-643.00
301,8344.00,9704.00,-9060.00,28.39,-2987.00,2006.00,434.00
302,8732.00,9740.00,-8216.00,28.44,-433.00,-137.00,330.00
303,8852.00,9764.00,-8000.00,28.39,2420.00,-3417.00,-739.00
304,7688.00,9612.00,-7924.00,28.34,-2617.00,3882.00,1581.00
305,7476.00,10988.00,-8488.00,28.39,-3970.00,-593.00,765.00
306,8760.00,10344.00,-7832.00,28.44,710.00,-2559.00,-224.00
307,9724.00,10536.00,-8676.00,28.29,-2117.00,-717.00,98.00
308,7412.00,9904.00,-8048.00,28.34,-509.00,-87.00,-542.00
309,9008.00,9748.00,-8172.00,28.44,-2575.00,1710.00,-951.00
310,9248.00,10328.00,-6796.00,28.39,2291.00,-1019.00,-834.00
311,7844.00,9896.00,-9876.00,28.44,1238.00,-1308.00,199.00
312,7872.00,11196.00,-9992.00,28.29,-6301.00,2268.00,2847.00
313,10720.00,10128.00,-6672.00,28.29,637.00,187.00,-1053.00
314,9416.00,10060.00,-7844.00,28.34,-1474.00,-31.00,-449.00
315,11020.00,10620.00,-7828.00,28.39,1627.00,-672.00,-1150.00
316,8716.00,10184.00,-9208.00,28.39,2362.00,-842.00,-1345.00
317,7788.00,12436.00,-8844.00,28.44,546.00,-1977.00,-483.00
318,7460.00,9868.00,-8476.00,28.29,1402.00,-497.00,-77.00
319,9112.00,9920.00,-8620.00,28.39,-1436.00,2028.00,304.00
320,8876.00,9932.00,-7984.00,28.34,-958.00,-35.00,269.00
321,9088.00,10024.00,-8508.00,28.44,88.00,344.00,152.00
322,7380.00,9848.00,-8364.00,28.48,-3907.00,-1345.00,948.00
323,9344.00,9968.00,-8188.00,28.34,1572.00,-1255.00,-564.00
324,9008.00,9816.00,-7692.00,28.34,-181.00,-877.00,-914.00
325,9228.00,10036.00,-7964.00,28.34,1217.00,-1296.00,-785.00
326,8644.00,9880.00,-9172.00,28.39,-888.00,334.00,-240.00
327,8840.00,9908.00,-8212.00,28.34,-51.00,-8.00,-174.00
328,8844.00,9864.00,-8316.00,28.39,-516.00,-381.00,-349.00
329,8868.00,10004.00,-8436.00,28.34,-124.00,-358.00,-243.00
330,8444.00,9704.00,-8708.00,28.39,-1022.00,-115.00,-114.00
331,9168.00,9872.00,-7980.00,28.53,294.00,-2139.00,-271.00
332,8652.00,9780.00,-8060.00,28.34,-91.00,-2229.00,-1166.00
333,8436.00,9972.00,-9108.00,28.48,1284.00,-1323.00,-6.00
334,8320.00,9840.00,-8672.00,28.39,-1177.00,-283.00,-198.00
335,8552.00,9844.00,-7300.00,28.34,-509.00,1095.00,525.00
336,10216.00,10372.00,-10568.00,28.39,611.00,-188.00,-936.00
337,11052.00,10412.00,-9680.00,28.44,-477.00,-743.00,-761.00
338,8612.00,9936.00,-8940.00,28.39,77.00,230.00,-78.00
339,9384.00,9944.00,-8808.00,28.39,-277.00,-77.00,-128.00
340,8136.00,9716.00,-8464.00,28.44,-312.00,-320.00,-125.00
341,7888.00,9952.00,-8148.00,28.39,-587.00,465.00,793.00
342,11676.00,10700.00,-9360.00,28.39,594.00,-471.00,-262.00
343,8352.00,9800.00,-8972.00,28.44,-920.00,99.00,-409.00
344,8876.00,9908.00,-9184.00,28.44,-263.00,-433.00,-401.00
345,8516.00,9876.00,-8652.00,28.39,-324.00,150.00,-66.00
346,8500.00,9904.00,-8740.00,28.39,-1172.00,405.00,-155.00
347,11208.00,10224.00,-9292.00,28.44,99.00,-347.00,-585.00
348,8808.00,9860.00,-8768.00,28.34,-1032.00,1040.00,193.00
349,8636.00,9812.00,-8464.00,28.39,-352.00,-12.00,-51.00
350,8512.00,9348.00,-8596.00,28.48,-856.00,1221.00,839.00
351,8824.00,9756.00,-8576.00,28.39,-465.00,-342.00,-237.00
352,8776.00,9872.00,-8284.00,28.44,-503.00,-370.00,-225.00
353,9004.00,9912.00,-8584.00,28.39,887.00,-1343.00,-212.00
354,6840.00,9160.00,-7788.00,28.34,-468.00,-56.00,443.00
355,8016.00,9136.00,-8672.00,28.34,-347.00,1413.00,37.00
356,8856.00,10048.00,-8572.00,28.44,-237.00,-300.00,-179.00
357,8916.00,9852.00,-8276.00,28.39,-255.00,-1906.00,-922.00
358,7852.00,9380.00,-9120.00,28.44,-1144.00,161.00,-831.00
359,8740.00,9792.00,-8740.00,28.44,-69.00,-281.00,-219.00
360,7324.00,9608.00,-8412.00,28.39,-140.00,-792.00,-550.00
361,8560.00,9692.00,-8732.00,28.39,53.00,19.00,-54.00
362,10300.00,9652.00,-8524.00,28.44,-205.00,-759.00,-1214.00
363,8716.00,9772.00,-8360.00,28.44,-242.00,-159.00,-126.00
364,8428.00,9676.00,-8668.00,28.34,362.00,-769.00,-284.00
365,8624.00,9708.00,-8432.00,28.39,-378.00,149.00,-49.00
366,8652.00,9768.00,-8848.00,28.44,73.00,-390.00,-184.00
367,8640.00,9704.00,-8960.00,28.44,-253.00,-287.00,-147.00
368,8536.00,9620.00,-8772.00,28.39,10.00,-448.00,-157.00
369,8760.00,9692.00,-8812.00,28.48,-843.00,555.00,135.00
370,8592.00,9616.00,-8592.00,28.34,-625.00,109.00,-84.00
371,8628.00,9668.00,-8532.00,28.39,-236.00,-243.00,-149.00
372,8740.00,9720.00,-8672.00,28.39,-341.00,-115.00,-117.00
373,9108.00,9824.00,-8888.00,28.44,-274.00,-77.00,-262.00
374,8696.00,9644.00,-8584.00,28.44,-105.00,-573.00,-244.00
375,8452.00,9456.00,-8956.00,28.44,-1220.00,693.00,88.00
376,8976.00,9664.00,-8644.00,28.39,-237.00,-406.00,-203.00
377,5840.00,9092.00,-7776.00,28.48,-1177.00,860.00,740.00
378,6464.00,9388.00,-8220.00,28.44,77.00,-1963.00,17.00
379,5756.00,9168.00,-8372.00,28.39,-294.00,-854.00,571.00
380,2948.00,8396.00,-6024.00,28.39,-157.00,469.00,205.00
381,9640.00,9892.00,-9464.00,28.48,-360.00,-439.00,-619.00
382,10064.00,9940.00,-9140.00,28.44,29.00,-696.00,-482.00
383,8656.00,9556.00,-8980.00,28.44,-307.00,-379.00,-354.00
384,8712.00,9612.00,-8836.00,28.34,152.00,-859.00,-527.00
385,8872.00,9584.00,-8672.00,28.48,134.00,1235.00,-482.00
386,8892.00,9736.00,-8860.00,28.39,-487.00,-573.00,-15.00
387,8640.00,9536.00,-8784.00,28.44,3201.00,-3861.00,-988.00
388,7708.00,9212.00,-10000.00,28.39,24.00,-543.00,-504.00
389,8240.00,9444.00,-9272.00,28.29,-1445.00,904.00,14.00
390,11224.00,10184.00,-10060.00,28.39,-537.00,-33.00,-594.00
391,7024.00,9188.00,-8508.00,28.39,-947.00,286.00,323.00
392,7852.00,9188.00,-9232.00,28.44,145.00,-261.00,-81.00
393,8728.00,8772.00,-9260.00,28.34,-522.00,-1099.00,-1792.00
394,8264.00,9460.00,-9380.00,28.34,-272.00,-310.00,-218.00
395,8348.00,9472.00,-8808.00,28.34,-430.00,-308.00,-174.00
396,8316.00,9376.00,-9104.00,28.39,-311.00,237.00,-95.00
397,8492.00,9468.00,-9324.00,28.48,-825.00,479.00,-101.00
398,6864.00,9152.00,-9764.00,28.39,-738.00,235.00,-69.00
399,8532.00,9472.00,-9404.00,28.48,-366.00,138.00,-91.00
400,8568.00,9540.00,-9108.00,28.39,-1564.00,618.00,-153.00
401,8564.00,9252.00,-8920.00,28.44,35.00,-75.00,-290.00
402,8664.00,9660.00,-9176.00,28.39,-1931.00,-607.00,470.00
403,8544.00,9720.00,-8148.00,28.44,-278.00,-2187.00,-235.00
404,8400.00,9824.00,-9336.00,28.48,1576.00,-1746.00,-403.00
405,8272.00,9568.00,-9976.00,28.44,41.00,1064.00,-37.00
406,8052.00,9588.00,-10400.00,28.44,-1900.00,1546.00,204.00
407,8360.00,9600.00,-8952.00,28.48,3258.00,-4215.00,-769.00
408,7660.00,9044.00,-9904.00,28.44,-197.00,-11.00,-335.00
409,8620.00,9732.00,-9908.00,28.44,-3005.00,1296.00,667.00
410,7988.00,9540.00,-7972.00,28.44,1686.00,-2919.00,-156.00
411,8076.00,9156.00,-10180.00,28.44,3246.00,-3574.00,-108.00
412,8244.00,8328.00,-9948.00,28.39,-1994.00,2639.00,-468.00
413,8016.00,9296.00,-9168.00,28.44,1256.00,-1115.00,-941.00
414,8040.00,9276.00,-9732.00,28.39,-2901.00,3319.00,-140.00
415,8116.00,9364.00,-9340.00,28.34,176.00,20.00,-443.00
416,7764.00,9400.00,-9484.00,28.39,-882.00,1780.00,162.00
417,8468.00,9656.00,-9004.00,28.39,-601.00,808.00,97.00
418,8684.00,9568.00,-9200.00,28.48,-1063.00,614.00,204.00
419,5800.00,8564.00,-7892.00,28.48,-585.00,65.00,-140.00
420,8624.00,9692.00,-9248.00,28.39,-1962.00,2077.00,291.00
421,9468.00,10008.00,-8156.00,28.44,1848.00,-1903.00,-865.00
422,8700.00,9408.00,-9364.00,28.39,2288.00,-3578.00,-1181.00
423,9052.00,9608.00,-10196.00,28.53,459.00,-1751.00,-1041.00
424,7952.00,9244.00,-9672.00,28.39,608.00,-1194.00,-298.00
425,8040.00,9236.00,-9564.00,28.44,-1478.00,1591.00,483.00
426,8460.00,9288.00,-9152.00,28.48,-3334.00,3644.00,792.00
427,8624.00,9496.00,-8408.00,28.48,704.00,-2902.00,-159.00
428,7372.00,8356.00,-10016.00,28.44,6.00,-1017.00,-1066.00
429,8480.00,9404.00,-8228.00,28.44,-1302.00,-306.00,-473.00
430,8224.00,9252.00,-8776.00,28.39,1735.00,-1554.00,-827.00
431,7940.00,9364.00,-9356.00,28.44,-370.00,-302.00,-290.00
432,8604.00,9572.00,-10220.00,28.39,-801.00,344.00,-71.00
433,8180.00,9452.00,-9280.00,28.39,-334.00,599.00,-31.00
434,8240.00,9456.00,-9232.00,28.39,-875.00,532.00,-19.00
435,8544.00,9388.00,-9280.00,28.39,614.00,-584.00,-179.00
436,8212.00,9272.00,-9208.00,28.39,-328.00,-263.00,-213.00
437,9292.00,10500.00,-10108.00,28.39,415.00,-1220.00,61.00
438,8260.00,9360.00,-9416.00,28.44,-94.00,-501.00,-215.00
439,7776.00,9296.00,-9596.00,28.44,1062.00,-1715.00,-535.00
440,7796.00,9224.00,-9692.00,28.48,-193.00,-91.00,-287.00
441,7844.00,9320.00,-9452.00,28.48,587.00,-664.00,-425.00
442,8012.00,9224.00,-9368.00,28.53,-1550.00,762.00,-37.00
443,7880.00,9148.00,-9728.00,28.44,972.00,-1524.00,-497.00
444,7876.00,9172.00,-9740.00,28.58,-1082.00,745.00,-210.00
445,7868.00,9172.00,-9700.00,28.39,-194.00,-73.00,-112.00
446,7776.00,8972.00,-9444.00,28.48,-43.00,57.00,125.00
447,8260.00,9236.00,-9732.00,28.44,-38.00,-1043.00,-267.00
448,7312.00,8988.00,-10064.00,28.39,-1254.00,987.00,407.00
449,8868.00,9384.00,-10256.00,28.53,-2145.00,2062.00,-72.00
450,8532.00,9048.00,-10040.00,28.48,2539.00,-3327.00,-765.00
451,9920.00,9540.00,-10148.00,28.39,-1104.00,-503.00,-786.00
452,7900.00,9152.00,-9688.00,28.44,-89.00,276.00,-141.00
453,8152.00,9120.00,-9492.00,28.44,-1134.00,1078.00,40.00
454,8072.00,9208.00,-9604.00,28.44,-702.00,143.00,-90.00
455,2792.00,7664.00,-7316.00,28.53,-1308.00,1053.00,549.00
456,8020.00,9192.00,-9444.00,28.44,-293.00,18.00,-49.00
457,8376.00,9300.00,-9464.00,28.53,-775.00,203.00,-156.00
458,7720.00,9084.00,-9488.00,28.44,-287.00,-163.00,-131.00
459,8088.00,9252.00,-9572.00,28.39,204.00,-473.00,-264.00
460,8084.00,9160.00,-9024.00,28.39,-2325.00,3606.00,645.00
461,8488.00,9372.00,-9756.00,28.39,221.00,-546.00,-329.00
462,8496.00,9172.00,-8876.00,28.44,1471.00,-3157.00,-711.00
463,10292.00,9584.00,-10688.00,28.44,3802.00,-5571.00,-1299.00
464,7652.00,9060.00,-10488.00,28.44,-1890.00,1870.00,578.00
465,7936.00,9048.00,-9280.00,28.34,-295.00,-232.00,-129.00
466,8016.00,9036.00,-9736.00,28.48,-817.00,160.00,-88.00
467,7876.00,9020.00,-9572.00,28.39,-1519.00,237.00,-116.00
468,8408.00,9396.00,-9984.00,28.48,338.00,-1176.00,-413.00
469,8152.00,9148.00,-9952.00,28.44,-118.00,-247.00,-1.00
470,8572.00,9444.00,-9936.00,28.53,-1221.00,505.00,55.00
471,7708.00,9264.00,-8884.00,28.44,-413.00,830.00,311.00
472,8164.00,9132.00,-9856.00,28.44,479.00,-810.00,-392.00
473,8496.00,9508.00,-10020.00,28.53,-1932.00,1439.00,-264.00
474,8208.00,9320.00,-9168.00,28.39,719.00,-2882.00,-754.00
475,8068.00,9260.00,-9760.00,28.44,734.00,-1649.00,-536.00
476,7548.00,9372.00,-10016.00,28.48,-1438.00,3667.00,973.00
477,8588.00,9512.00,-9088.00,28.44,-4624.00,4664.00,753.00
478,8784.00,9556.00,-8720.00,28.48,30.00,-23.00,206.00
479,8728.00,9476.00,-9236.00,28.53,1019.00,-1521.00,-394.00
480,8356.00,9316.00,-8792.00,28.48,2071.00,-3023.00,-673.00
481,8932.00,9440.00,-9916.00,28.44,3492.00,-6294.00,-1600.00
482,7748.00,8904.00,-10312.00,28.53,486.00,-1532.00,-960.00
483,7364.00,8800.00,-10044.00,28.48,-475.00,432.00,-262.00
484,7276.00,9120.00,-10256.00,28.53,-490.00,793.00,603.00
485,7892.00,8952.00,-10484.00,28.44,-1541.00,1213.00,-66.00
486,7304.00,8868.00,-9540.00,28.39,-93.00,-487.00,-148.00
487,8420.00,9124.00,-10920.00,28.39,-495.00,-282.00,-470.00
488,7912.00,8900.00,-9484.00,28.44,-1364.00,1075.00,112.00
489,8120.00,9128.00,-9944.00,28.48,-2109.00,1700.00,217.00
490,6576.00,9632.00,-12024.00,28.53,-4433.00,1835.00,4371.00
491,3564.00,8220.00,-7096.00,28.53,-2532.00,-754.00,804.00
492,8108.00,9316.00,-9980.00,28.44,-369.00,-34.00,-224.00
493,9012.00,9944.00,-8728.00,28.44,-912.00,493.00,-91.00
494,8800.00,9424.00,-9284.00,28.44,-1422.00,-29.00,-9.00
495,8360.00,19220.00,-12336.00,28.53,-5058.00,30.00,-295.00
496,7604.00,8688.00,-9144.00,28.34,-8326.00,2790.00,-4641.00
497,6740.00,7552.00,-6976.00,28.39,2980.00,-728.00,-2360.00
498,5872.00,9420.00,-9268.00,28.53,3922.00,-855.00,115.00
499,6104.00,7832.00,-10332.00,28.48,-675.00,461.00,1442.00
500,6544.00,7116.00,-9968.00,28.48,-1773.00,3355.00,2740.00
501,8108.00,10380.00,-10556.00,28.53,-5225.00,-1331.00,1627.00
502,8556.00,9592.00,-9160.00,28.44,-2601.00,-413.00,838.00
503,10864.00,11056.00,-6608.00,28.48,-6718.00,6553.00,768.00
504,8884.00,10644.00,-8216.00,28.53,-2022.00,-2321.00,1186.00
505,8732.00,12576.00,-6192.00,28.53,-4579.00,2670.00,1728.00
506,9296.00,10768.00,-5732.00,28.44,2351.00,274.00,-406.00
507,7904.00,9824.00,-6836.00,28.53,2577.00,-77.00,-525.00
508,9640.00,9996.00,-7320.00,28.44,-316.00,618.00,-351.00
509,10760.00,11248.00,-7420.00,28.44,474.00,-1202.00,-816.00
510,9064.00,10404.00,-8348.00,28.53,5062.00,-5402.00,-460.00
511,9680.00,10296.00,-8876.00,28.44,2196.00,-3405.00,412.00
512,8716.00,9892.00,-8016.00,28.48,-219.00,-642.00,150.00
513,8524.00,9932.00,-8524.00,28.48,4841.00,-4951.00,882.00
514,10368.00,12656.00,-10252.00,28.44,-5181.00,3555.00,-719.00
515,8304.00,7652.00,-9912.00,28.44,5342.00,-3881.00,-2452.00
516,9792.00,10652.00,-10972.00,28.48,-1098.00,-199.00,-690.00
517,6912.00,9076.00,-10832.00,28.48,1788.00,-1884.00,-1308.00
518,5320.00,10528.00,-9500.00,28.48,1259.00,-870.00,1361.00
519,7448.00,7968.00,-8984.00,28.48,-1952.00,330.00,2667.00
520,8344.00,9120.00,-9920.00,28.53,548.00,1638.00,932.00
521,8112.00,8288.00,-11096.00,28.53,-969.00,-511.00,-242.00
522,7336.00,8612.00,-8824.00,28.48,1414.00,-205.00,509.00
523,8208.00,10084.00,-10104.00,28.48,1074.00,176.00,-1687.00
524,8736.00,7556.00,-11352.00,28.44,-4035.00,864.00,462.00
525,8516.00,8736.00,-9804.00,28.58,-5078.00,-335.00,222.00
526,7240.00,10184.00,-7376.00,28.53,-856.00,213.00,-993.00
527,7512.00,8980.00,-9712.00,28.53,2905.00,-1498.00,15.00
528,3992.00,8984.00,-12004.00,28.48,2727.00,1873.00,-275.00
529,6684.00,8100.00,-8592.00,28.44,-4470.00,3317.00,-559.00
530,6024.00,7500.00,-8636.00,28.39,-3817.00,578.00,1240.00
531,10364.00,10968.00,-10472.00,28.44,-2389.00,2860.00,-881.00
532,8864.00,9596.00,-9164.00,28.53,-29.00,323.00,-783.00
533,8868.00,10436.00,-8368.00,28.53,-5231.00,4549.00,-1134.00
534,8720.00,10092.00,-7432.00,28.48,129.00,-1479.00,-757.00
535,9024.00,10292.00,-7484.00,28.58,1512.00,-1724.00,84.00
536,7800.00,9564.00,-9116.00,28.58,2751.00,-4377.00,-466.00
537,8244.00,9748.00,-8456.00,28.53,-69.00,-1029.00,434.00
538,8456.00,9840.00,-9072.00,28.48,281.00,-400.00,52.00
539,7640.00,10420.00,-7316.00,28.62,2287.00,-1183.00,-150.00
540,8500.00,9616.00,-9744.00,28.58,1560.00,-3364.00,-1248.00
541,8600.00,9652.00,-9116.00,28.48,996.00,-2582.00,-1261.00
542,7544.00,9496.00,-10640.00,28.53,-1240.00,1178.00,-270.00
543,7264.00,9312.00,-9560.00,28.48,2054.00,-2212.00,108.00
544,6988.00,8916.00,-8616.00,28.53,2987.00,-1667.00,627.00
545,6956.00,8164.00,-10984.00,28.48,2623.00,-3416.00,-615.00
546,6804.00,8544.00,-10700.00,28.53,-2941.00,1327.00,-669.00
547,6772.00,8820.00,-10148.00,28.44,-229.00,16.00,-336.00
548,7000.00,8916.00,-10960.00,28.53,-1586.00,2528.00,554.00
549,7264.00,8520.00,-9848.00,28.44,-1176.00,24.00,139.00
550,7228.00,8888.00,-9992.00,28.53,1323.00,-1686.00,521.00
551,7156.00,8604.00,-10312.00,28.53,2521.00,-2860.00,-19.00
552,7064.00,8416.00,-11108.00,28.58,-1210.00,478.00,-493.00
553,7268.00,8916.00,-10308.00,28.53,-4737.00,5181.00,239.00
554,6996.00,8720.00,-9020.00,28.58,-602.00,-388.00,-704.00
555,7848.00,9172.00,-10064.00,28.53,994.00,-2428.00,-496.00
556,7972.00,9068.00,-9424.00,28.58,-810.00,-305.00,92.00
557,7108.00,9216.00,-9616.00,28.48,-1747.00,269.00,282.00
558,7380.00,9032.00,-10148.00,28.48,-9.00,622.00,602.00
559,7860.00,9044.00,-9764.00,28.48,-901.00,1083.00,773.00
560,8204.00,9028.00,-9904.00,28.58,-704.00,-371.00,406.00
561,7684.00,9108.00,-10436.00,28.44,1353.00,-3367.00,-315.00
562,7568.00,8904.00,-10244.00,28.58,-1609.00,556.00,-297.00
563,7580.00,9036.00,-10256.00,28.53,-1072.00,146.00,-129.00
564,7460.00,9020.00,-9856.00,28.48,-801.00,70.00,-178.00
565,6884.00,8684.00,-9404.00,28.48,-1560.00,985.00,-207.00
566,7796.00,9156.00,-9492.00,28.62,-590.00,487.00,50.00
567,7740.00,9196.00,-9664.00,28.39,-709.00,157.00,17.00
568,8420.00,9392.00,-8708.00,28.58,-1990.00,2500.00,686.00
569,6476.00,8028.00,-8844.00,28.48,1968.00,-2405.00,-813.00
570,5864.00,8428.00,-9044.00,28.53,-1491.00,456.00,247.00
571,7824.00,9252.00,-9984.00,28.44,-1260.00,299.00,-184.00
572,7412.00,9100.00,-7984.00,28.48,-2008.00,1628.00,635.00
573,7296.00,9244.00,-8864.00,28.58,937.00,-308.00,631.00
574,9000.00,9688.00,-10560.00,28.48,-822.00,586.00,-463.00
575,8428.00,9352.00,-8884.00,28.44,1051.00,-1328.00,-517.00
576,8100.00,9596.00,-10332.00,28.58,-21.00,-1416.00,-560.00
577,7956.00,9216.00,-9700.00,28.44,-1189.00,48.00,-457.00
578,8156.00,9448.00,-9324.00,28.53,-687.00,32.00,48.00
579,7860.00,9428.00,-9988.00,28.53,-190.00,163.00,412.00
580,7932.00,9524.00,-9996.00,28.53,-441.00,331.00,416.00
581,8124.00,8864.00,-9356.00,28.53,2727.00,-2484.00,-284.00
582,7528.00,8944.00,-10208.00,28.58,638.00,-1969.00,-564.00
583,7652.00,8860.00,-10132.00,28.53,357.00,-1788.00,-715.00
584,7816.00,9140.00,-10116.00,28.58,-2496.00,2422.00,501.00
585,8028.00,8900.00,-10268.00,28.53,1286.00,-868.00,174.00
586,6816.00,9000.00,-8480.00,28.62,661.00,-2295.00,-291.00
587,7780.00,7780.00,-10404.00,28.58,1620.00,-2566.00,-852.00
588,7420.00,9164.00,-10568.00,28.48,-1091.00,-136.00,-638.00
589,7452.00,8840.00,-10240.00,28.53,-2039.00,1857.00,-2.00
590,7548.00,9036.00,-10448.00,28.48,93.00,-805.00,-412.00
591,7472.00,9048.00,-10200.00,28.58,-1738.00,1058.00,361.00
592,8012.00,9208.00,-9688.00,28.44,-1359.00,1607.00,471.00
593,7836.00,9028.00,-9196.00,28.48,3117.00,-3064.00,-183.00
594,7008.00,8812.00,-10244.00,28.53,389.00,-1652.00,-749.00
595,7472.00,9000.00,-10756.00,28.48,-2990.00,2499.00,190.00
596,7852.00,9300.00,-9136.00,28.53,-3631.00,2529.00,487.00
597,9024.00,10244.00,-10528.00,28.48,2002.00,-1561.00,152.00
598,8352.00,9156.00,-9648.00,28.53,-1258.00,1609.00,246.00
599,8004.00,9756.00,-11156.00,28.58,2070.00,-4686.00,-1688.00
600,8180.00,9876.00,-10316.00,28.58,-2742.00,1749.00,208.00
601,7816.00,9288.00,-9580.00,28.53,-881.00,1077.00,-189.00
602,7840.00,9100.00,-9656.00,28.44,1000.00,-1963.00,-650.00
603,7680.00,9200.00,-9592.00,28.48,-969.00,722.00,-213.00
604,8696.00,9368.00,-10100.00,28.53,-539.00,-259.00,-614.00
605,7800.00,9220.00,-9508.00,28.48,85.00,-596.00,-387.00
606,7740.00,9304.00,-9736.00,28.48,251.00,-790.00,-294.00
607,7564.00,9200.00,-9720.00,28.53,-575.00,112.00,-71.00
608,7868.00,9224.00,-9812.00,28.58,-519.00,171.00,-101.00
609,7892.00,9256.00,-9500.00,28.48,-178.00,-160.00,-75.00
610,7628.00,9316.00,-9648.00,28.58,-225.00,-165.00,-22.00
611,7436.00,9200.00,-9580.00,28.58,-659.00,-17.00,-76.00
612,7656.00,9196.00,-9820.00,28.48,104.00,-852.00,-301.00
613,6932.00,9116.00,-10076.00,28.53,-14.00,-456.00,247.00
614,6912.00,8996.00,-9980.00,28.53,-593.00,1073.00,693.00
615,7768.00,9316.00,-10320.00,28.53,-251.00,-406.00,235.00
616,7064.00,8296.00,-10416.00,28.53,2004.00,-2817.00,-974.00
617,7372.00,8748.00,-9260.00,28.53,-2217.00,1557.00,304.00
618,5124.00,9000.00,-8536.00,28.48,-1925.00,1357.00,768.00
619,7108.00,8800.00,-9704.00,28.48,3845.00,-2225.00,920.00
620,8032.00,8396.00,-11312.00,28.53,1428.00,-2430.00,-221.00
621,5236.00,6736.00,-9524.00,28.48,-627.00,223.00,-234.00
622,6632.00,8040.00,-10020.00,28.58,234.00,-1513.00,-774.00
623,6896.00,8616.00,-11060.00,28.53,-1106.00,1236.00,-156.00
624,6980.00,8644.00,-10360.00,28.53,-705.00,383.00,-121.00
625,7120.00,8676.00,-10620.00,28.53,436.00,-240.00,-269.00
626,7080.00,8604.00,-10628.00,28.58,-1355.00,1151.00,51.00
627,7224.00,8716.00,-10268.00,28.58,-668.00,161.00,-89.00
628,6980.00,8660.00,-10540.00,28.48,-40.00,-787.00,-309.00
629,6968.00,8628.00,-10260.00,28.53,84.00,-1237.00,-314.00
630,7024.00,8712.00,-10840.00,28.62,-137.00,-15.00,-86.00
631,7100.00,8712.00,-10376.00,28.48,-1.00,-1037.00,-300.00
632,6928.00,8460.00,-10324.00,28.58,2346.00,-2490.00,-89.00
633,6468.00,7832.00,-11228.00,28.53,7766.00,-7214.00,483.00
634,6036.00,7016.00,-12296.00,28.58,4777.00,-3458.00,1240.00
635,5636.00,6388.00,-12668.00,28.53,3898.00,-3273.00,831.00
636,5336.00,5884.00,-12916.00,28.53,3526.00,-3802.00,117.00
637,5212.00,5748.00,-13100.00,28.48,-111.00,243.00,132.00
638,5140.00,5544.00,-13104.00,28.58,60.00,-861.00,-93.00
639,5104.00,5556.00,-12672.00,28.48,-926.00,492.00,41.00
640,5176.00,5672.00,-13148.00,28.58,-95.00,-226.00,2.00
641,5168.00,5668.00,-13308.00,28.58,367.00,-1218.00,-211.00
642,5128.00,5648.00,-13056.00,28.53,-377.00,-16.00,43.00
643,4976.00,5556.00,-13108.00,28.53,-133.00,-619.00,-122.00
644,5096.00,5652.00,-13056.00,28.58,-1709.00,1532.00,218.00
645,5192.00,5712.00,-12864.00,28.53,-1143.00,420.00,-8.00
646,5260.00,5836.00,-12720.00,28.62,-405.00,-184.00,-143.00
647,5224.00,5816.00,-12684.00,28.58,555.00,-509.00,78.00
648,5112.00,5588.00,-13200.00,28.58,659.00,-772.00,63.00
649,5084.00,5536.00,-13132.00,28.58,373.00,-808.00,192.00
650,5216.00,5560.00,-13060.00,28.48,-582.00,111.00,122.00
651,5184.00,5520.00,-13040.00,28.62,200.00,-610.00,-95.00
652,4976.00,5396.00,-13244.00,28.53,-110.00,-439.00,-94.00
653,4992.00,5444.00,-13168.00,28.48,-73.00,-461.00,1.00
654,4996.00,5232.00,-13372.00,28.53,186.00,-795.00,-129.00
655,5016.00,5312.00,-13204.00,28.53,-562.00,106.00,-73.00
656,4960.00,5356.00,-13016.00,28.58,-334.00,-263.00,-140.00
657,4880.00,5304.00,-13156.00,28.53,687.00,-1502.00,-299.00
658,4700.00,5160.00,-13444.00,28.48,611.00,-1132.00,-90.00
659,4632.00,5056.00,-13432.00,28.62,-105.00,-181.00,91.00
660,4664.00,5056.00,-13408.00,28.53,-1005.00,550.00,8.00
661,4740.00,5144.00,-13500.00,28.44,-819.00,168.00,-90.00
662,4748.00,5260.00,-13420.00,28.62,-126.00,-181.00,-83.00
663,4736.00,5128.00,-13208.00,28.48,-33.00,-208.00,-17.00
664,4772.00,5104.00,-13576.00,28.48,-130.00,-418.00,-207.00
665,4632.00,5060.00,-13352.00,28.53,-685.00,156.00,-90.00
666,4656.00,5076.00,-13248.00,28.53,-637.00,233.00,-114.00
667,4944.00,5172.00,-13460.00,28.58,-271.00,-289.00,-175.00
668,4752.00,5104.00,-13436.00,28.62,-605.00,206.00,-70.00
669,4868.00,5148.00,-13412.00,28.53,-721.00,318.00,-9.00
670,4864.00,5220.00,-13276.00,28.53,-887.00,454.00,-16.00
671,5088.00,5308.00,-13204.00,28.53,-1053.00,476.00,-84.00
672,5120.00,5360.00,-13156.00,28.58,-976.00,520.00,-36.00
673,5112.00,5396.00,-13092.00,28.58,-1296.00,827.00,0.00
674,5384.00,5652.00,-13100.00,28.58,-2360.00,1928.00,163.00
675,5644.00,5956.00,-13388.00,28.44,-4869.00,3367.00,335.00
676,6216.00,6852.00,-14776.00,28.58,-4616.00,-3376.00,-2415.00
677,6804.00,8880.00,-16768.00,28.58,-14606.00,-4847.00,-7551.00
678,5660.00,9252.00,-15248.00,28.53,-7170.00,-16655.00,-9475.00
679,1144.00,15076.00,-14104.00,28.53,-14602.00,-14877.00,-11483.00
680,-2576.00,10684.00,-9136.00,28.53,-10857.00,-13268.00,-18463.00
681,-7016.00,8876.00,-7996.00,28.44,-3519.00,-19453.00,-20576.00
682,-8224.00,8312.00,-4820.00,28.58,-2620.00,-19832.00,-17092.00
683,-7424.00,4144.00,-124.00,28.53,-9132.00,-16781.00,-699.00
684,-8664.00,6140.00,416.00,28.44,-2483.00,-12278.00,-712.00
685,-11468.00,8708.00,2908.00,28.58,-2830.00,-10098.00,-1890.00
686,-12428.00,8892.00,2684.00,28.53,-5689.00,-6880.00,-1297.00
687,-11752.00,14220.00,3932.00,28.53,-1145.00,-4624.00,-904.00
688,-14212.00,5312.00,2212.00,28.62,-2524.00,-2440.00,448.00
689,-12120.00,11132.00,4208.00,28.53,3406.00,-5458.00,2527.00
690,-12600.00,9104.00,4216.00,28.53,-55.00,-3215.00,-779.00
691,-12136.00,9164.00,5592.00,28.58,2608.00,-546.00,190.00
692,-11896.00,11144.00,4452.00,28.53,2127.00,-3048.00,-2830.00
693,-12596.00,10980.00,4740.00,28.53,-3360.00,-1057.00,-4826.00
694,-13616.00,6344.00,3356.00,28.58,-4196.00,-1450.00,-3676.00
695,-13420.00,8208.00,4668.00,28.58,-4438.00,42.00,-2119.00
696,-13656.00,7088.00,4712.00,28.53,-3501.00,285.00,-1256.00
697,-13888.00,6740.00,4520.00,28.48,-4537.00,-108.00,-722.00
698,-13868.00,6688.00,5472.00,28.53,-2363.00,-93.00,-302.00
699,-13772.00,6108.00,5072.00,28.58,-1233.00,-405.00,-308.00
700,-13748.00,6920.00,5616.00,28.58,-1068.00,-334.00,138.00
701,-13672.00,7480.00,5468.00,28.62,-492.00,-386.00,279.00
702,-13488.00,7348.00,5476.00,28.53,-462.00,-471.00,-388.00
703,-13656.00,6872.00,5564.00,28.58,-730.00,-376.00,-156.00
704,-14012.00,7404.00,6280.00,28.58,-427.00,-497.00,-256.00
705,-13724.00,6704.00,5844.00,28.62,-29.00,-531.00,-144.00
706,-13752.00,6620.00,5120.00,28.62,-67.00,-477.00,-190.00
707,-13580.00,7100.00,5408.00,28.67,1185.00,-542.00,554.00
708,-13600.00,7032.00,5188.00,28.53,1199.00,-194.00,407.00
709,-13364.00,7912.00,5696.00,28.53,763.00,-700.00,180.00
710,-13532.00,6732.00,6436.00,28.58,-686.00,-953.00,-309.00
711,-13544.00,7276.00,5208.00,28.62,90.00,-581.00,-75.00
712,-13424.00,7372.00,5180.00,28.53,308.00,-469.00,162.00
713,-13116.00,7316.00,5820.00,28.53,464.00,-186.00,-714.00
714,-13484.00,7540.00,6000.00,28.62,939.00,-384.00,-469.00
715,-13648.00,7264.00,5748.00,28.67,161.00,-524.00,-808.00
716,-13596.00,6832.00,5040.00,28.62,648.00,-317.00,-431.00
717,-13492.00,7436.00,5580.00,28.53,757.00,-33.00,348.00
718,-13564.00,7300.00,5392.00,28.53,1019.00,316.00,703.00
719,-13412.00,7736.00,4648.00,28.53,273.00,52.00,287.00
720,-13376.00,7888.00,5168.00,28.62,-359.00,-211.00,179.00
721,-13308.00,8060.00,4900.00,28.58,-748.00,114.00,530.00
722,-13216.00,7892.00,4812.00,28.67,-229.00,475.00,1679.00
723,-12988.00,8812.00,6240.00,28.62,-462.00,1676.00,1628.00
724,-12576.00,8616.00,5216.00,28.62,217.00,2302.00,2765.00
725,-13188.00,8536.00,4896.00,28.58,-677.00,3554.00,1642.00
726,-13688.00,6596.00,5792.00,28.58,-1201.00,2317.00,706.00
727,-12700.00,5600.00,6288.00,28.53,13474.00,-881.00,972.00
728,-12108.00,8772.00,2452.00,28.58,21632.00,7787.00,4262.00
729,-11720.00,6920.00,-576.00,28.62,21401.00,10138.00,6797.00
730,-10124.00,6948.00,-4836.00,28.62,18092.00,12812.00,8461.00
731,-8248.00,9876.00,-8888.00,28.53,8245.00,16685.00,8105.00
732,-9644.00,4740.00,-6988.00,28.67,3771.00,15543.00,9567.00
733,-476.00,13172.00,-17016.00,28.67,-5824.00,16168.00,12076.00
734,1404.00,10468.00,-12136.00,28.48,-5431.00,9892.00,11379.00
735,992.00,11116.00,-7624.00,28.58,37.00,7498.00,11329.00
736,3636.00,12812.00,-10424.00,28.62,-3344.00,5020.00,8976.00
737,7076.00,13856.00,-8976.00,28.48,1850.00,9418.00,9596.00
738,4476.00,14644.00,-7312.00,28.62,10938.00,235.00,3858.00
739,5104.00,10284.00,-12060.00,28.48,7941.00,573.00,1527.00
740,4624.00,8968.00,-11456.00,28.53,365.00,229.00,-108.00
741,5408.00,9260.00,-10964.00,28.58,-1371.00,-670.00,74.00
742,4728.00,10320.00,-10372.00,28.67,-356.00,-801.00,-114.00
743,4520.00,10296.00,-10372.00,28.58,952.00,-719.00,406.00
744,4852.00,10016.00,-10264.00,28.58,1543.00,-730.00,580.00
745,4792.00,9536.00,-10992.00,28.53,1668.00,-481.00,440.00
746,4972.00,9176.00,-11276.00,28.58,536.00,-342.00,175.00
747,4892.00,9192.00,-11016.00,28.58,273.00,-405.00,117.00
748,4784.00,9188.00,-11396.00,28.58,115.00,-220.00,89.00
749,4988.00,9136.00,-11188.00,28.58,-203.00,-174.00,148.00
750,4864.00,9112.00,-11284.00,28.53,-456.00,-141.00,-25.00
751,5056.00,9216.00,-11360.00,28.48,-606.00,-144.00,-26.00
752,4964.00,9068.00,-11092.00,28.58,-248.00,-87.00,-204.00
753,4928.00,9044.00,-11216.00,28.53,-117.00,-90.00,6.00
754,4820.00,8896.00,-11300.00,28.67,-252.00,-108.00,-91.00
755,5036.00,8916.00,-11292.00,28.53,-25.00,-112.00,-82.00
756,5152.00,9072.00,-11260.00,28.62,-197.00,-52.00,-241.00
757,4860.00,9028.00,-11404.00,28.58,136.00,-107.00,-140.00
758,5080.00,8948.00,-11444.00,28.58,48.00,-87.00,-83.00
759,4904.00,8752.00,-11588.00,28.62,105.00,-140.00,-41.00
760,4912.00,8796.00,-11520.00,28.58,-522.00,-104.00,-198.00
761,4992.00,8924.00,-11320.00,28.53,79.00,-141.00,-69.00
762,5104.00,8880.00,-11356.00,28.53,-113.00,-179.00,3.00
763,4976.00,8772.00,-11348.00,28.48,-53.00,-168.00,-105.00
764,4864.00,8828.00,-11440.00,28.62,-87.00,-153.00,-148.00
765,4936.00,8728.00,-11392.00,28.67,-140.00,-201.00,-28.00
766,4928.00,8696.00,-11316.00,28.58,-396.00,-173.00,-42.00
767,4976.00,8744.00,-11404.00,28.53,-446.00,-182.00,-92.00
768,5012.00,8688.00,-11276.00,28.58,-320.00,-177.00,-77.00
769,5048.00,8764.00,-11432.00,28.67,-381.00,-154.00,-53.00
770,5012.00,8740.00,-11492.00,28.53,-256.00,-161.00,-79.00
771,4912.00,8756.00,-11468.00,28.53,-144.00,-164.00,-119.00
772,5116.00,8660.00,-11500.00,28.58,-269.00,-157.00,-152.00
773,4944.00,8688.00,-11332.00,28.62,-284.00,-194.00,-87.00
774,4968.00,8640.00,-11524.00,28.58,-429.00,-169.00,-88.00
775,5108.00,8732.00,-11424.00,28.53,-301.00,-187.00,-121.00
776,4920.00,8668.00,-11476.00,28.53,-345.00,-165.00,-74.00
777,4964.00,8732.00,-11540.00,28.58,-245.00,-186.00,-85.00
778,5032.00,8656.00,-11472.00,28.62,-253.00,-160.00,-142.00
779,4980.00,8660.00,-11440.00,28.58,-298.00,-160.00,-143.00
780,4960.00,8616.00,-11508.00,28.72,-224.00,-169.00,-66.00
781,5004.00,8596.00,-11592.00,28.58,-328.00,-158.00,-43.00
782,5028.00,8640.00,-11388.00,28.58,-242.00,-182.00,-105.00
783,4916.00
Sample,aX,aY,az,Temp,gX,gY,gz