0,2800,-259.00,-119.00
182,3240.00,4628.00,-13988.00,28.39,-4.48,-451.00,-286.00
181,3060.00,4444.00,-13844.00,28.44,-537.00,-259.00,-119.00
182,3240.00,4628.00,-13988.00,28.39,-494.0,-28
Sample,aX,aY,az,Temp,gX,gY,gz
1,2852.00,4776.00,-14004.00,28.39,-562.00,-325.00,-393.00
2,2868.00,4936.00,-13944.00,28.34,-575.00,-387.00,-299.00
3,2512.00,5168.00,-13872.00,28.44,-562.00,-333.00,-188.00
4,2384.00,5308.00,-13944.00,28.44,-488.00,-298.00,-169.00
5,2556.00,5528.00,-13780.00,28.34,-312.00,-258.00,-258.00
6,2760.00,5344.00,-13544.00,28.48,-372.00,-411.00,-685.00
7,2276.00,5044.00,-13840.00,28.39,-646.00,-534.00,-897.00
8,1916.00,5088.00,-13900.00,28.39,-399.00,-219.00,-550.00
9,2464.00,5140.00,-13904.00,28.44,-114.00,-10.00,-302.00
10,2912.00,5228.00,-14004.00,28.44,-14.00,18.00,-309.00
11,2920.00,5016.00,-13908.00,28.39,-201.00,-311.00,-522.00
12,2692.00,4960.00,-13724.00,28.44,-586.00,-729.00,-675.00
13,1724.00,5168.00,-14120.00,28.34,-506.00,-505.00,-659.00
14,1860.00,4900.00,-13800.00,28.39,-617.00,4.00,-108.00
15,2452.00,5200.00,-13760.00,28.48,-394.00,215.00,56.00
16,3392.00,5228.00,-14108.00,28.44,-350.00,-42.00,-33.00
17,2988.00,4984.00,-13872.00,28.44,-433.00,-405.00,-309.00
18,2692.00,5124.00,-13696.00,28.53,-670.00,-497.00,-551.00
19,1672.00,5376.00,-13796.00,28.39,-487.00,-340.00,-657.00
20,912.00,5424.00,-13628.00,28.34,-223.00,299.00,324.00
21,2220.00,5572.00,-13580.00,28.39,515.00,771.00,620.00
22,2852.00,5460.00,-13976.00,28.48,583.00,823.00,405.00
23,3428.00,5072.00,-13684.00,28.44,67.00,-271.00,275.00
24,2884.00,4916.00,-14048.00,28.44,-745.00,-1181.00,-434.00
25,2280.00,4588.00,-14280.00,28.48,-1020.00,-975.00,-607.00
26,2340.00,4988.00,-13884.00,28.53,-1121.00,-316.00,-829.00
27,2072.00,5232.00,-13776.00,28.39,-718.00,98.00,-495.00
28,2500.00,5540.00,-14040.00,28.39,-287.00,216.00,-134.00
29,3180.00,5688.00,-13800.00,28.44,-287.00,2.00,-330.00
30,2696.00,5520.00,-13988.00,28.39,-60.00,-95.00,62.00
31,2340.00,5016.00,-13836.00,28.53,259.00,-79.00,387.00
32,1844.00,5240.00,-13772.00,28.44,-127.00,9.00,660.00
33,2168.00,5276.00,-13852.00,28.58,253.00,329.00,918.00
34,2656.00,5236.00,-13768.00,28.48,370.00,552.00,399.00
35,2776.00,5216.00,-13632.00,28.44,197.00,401.00,-149.00
36,2724.00,5032.00,-13976.00,28.53,64.00,313.00,-439.00
37,2696.00,5096.00,-13752.00,28.34,6.00,142.00,-495.00
38,2592.00,4996.00,-13612.00,28.39,-71.00,94.00,-780.00
39,2884.00,4784.00,-13788.00,28.44,-242.00,-12.00,-1119.00
40,3164.00,4632.00,-14024.00,28.48,-819.00,-73.00,-1499.00
41,2996.00,4980.00,-14108.00,28.44,-1051.00,-186.00,-1443.00
42,3016.00,4640.00,-14004.00,28.39,-833.00,-297.00,-1193.00
43,2956.00,4896.00,-14148.00,28.44,-472.00,-644.00,-1109.00
44,3148.00,4452.00,-14220.00,28.39,-267.00,-930.00,-410.00
45,3232.00,3928.00,-14464.00,28.44,-500.00,-1093.00,427.00
46,3280.00,4660.00,-14284.00,28.29,-971.00,-927.00,427.00
47,2744.00,5708.00,-13736.00,28.39,-1706.00,-1201.00,765.00
48,1912.00,5260.00,-13948.00,28.53,-1002.00,-996.00,1358.00
49,2148.00,5612.00,-13944.00,28.39,-1960.00,-918.00,1530.00
50,2064.00,6300.00,-13868.00,28.53,-1630.00,-700.00,1322.00
51,2196.00,6240.00,-13392.00,28.48,-729.00,-397.00,1122.00
52,1748.00,6656.00,-13468.00,28.44,-626.00,-663.00,836.00
53,1996.00,6312.00,-13532.00,28.44,-675.00,-612.00,284.00
54,1712.00,6180.00,-13400.00,28.44,-617.00,-375.00,-491.00
55,2048.00,6764.00,-13936.00,28.48,-683.00,-494.00,-467.00
56,2476.00,6440.00,-13456.00,28.44,-428.00,-542.00,-869.00
57,2500.00,5944.00,-13816.00,28.39,-43.00,-647.00,-881.00
58,2352.00,5740.00,-13292.00,28.48,51.00,-466.00,-489.00
59,2896.00,6300.00,-13820.00,28.44,45.00,-403.00,-652.00
60,2344.00,6456.00,-13412.00,28.48,3.00,-737.00,-1281.00
61,1996.00,6840.00,-14036.00,28.48,327.00,-681.00,-1298.00
62,2168.00,6100.00,-13756.00,28.58,872.00,-225.00,-1650.00
63,2092.00,5800.00,-14484.00,28.53,20.00,423.00,-2077.00
64,1376.00,5448.00,-13564.00,28.44,528.00,450.00,-2568.00
65,-860.00,2228.00,-14244.00,28.44,790.00,-674.00,-4303.00
66,-436.00,2720.00,-14436.00,28.48,102.00,81.00,-3643.00
67,544.00,3876.00,-15820.00,28.48,-695.00,419.00,-3675.00
68,1260.00,4424.00,-13408.00,28.39,-1535.00,216.00,-3271.00
69,1344.00,4936.00,-13956.00,28.44,-1209.00,272.00,-2567.00
70,-168.00,5168.00,-14168.00,28.53,-1754.00,-1737.00,-2648.00
71,-1444.00,5392.00,-13484.00,28.48,1844.00,-3405.00,-2772.00
72,-972.00,6572.00,-14844.00,28.39,2507.00,-2072.00,-1419.00
73,1256.00,6120.00,-14428.00,28.48,699.00,-1664.00,-715.00
74,20.00,4816.00,-16592.00,28.44,-6229.00,-3354.00,-1602.00
75,-1640.00,4848.00,-14532.00,28.58,-6888.00,-2722.00,-1846.00
76,-1884.00,5840.00,-10340.00,28.48,-6573.00,-2759.00,-2528.00
77,-576.00,7212.00,-9488.00,28.48,1646.00,-2290.00,-1830.00
78,-224.00,6600.00,-8892.00,28.44,-2897.00,-1888.00,-247.00
79,-520.00,6540.00,-11112.00,28.48,-4049.00,493.00,3478.00
80,-1892.00,7952.00,-12744.00,28.53,-2107.00,1952.00,3926.00
81,-2540.00,10292.00,-13840.00,28.48,-435.00,657.00,3157.00
82,-2968.00,8308.00,-12940.00,28.44,1870.00,690.00,1647.00
83,-1880.00,7732.00,-12344.00,28.48,2916.00,1654.00,1742.00
84,232.00,7928.00,-12624.00,28.44,3157.00,2868.00,642.00
85,1832.00,6432.00,-12704.00,28.53,4162.00,2456.00,202.00
86,2152.00,6076.00,-13732.00,28.44,3598.00,2291.00,-241.00
87,1300.00,4928.00,-11792.00,28.48,3708.00,2482.00,1020.00
88,2736.00,6000.00,-14656.00,28.44,2878.00,3778.00,1572.00
89,2464.00,6200.00,-17240.00,28.44,2181.00,3966.00,2090.00
90,1916.00,3956.00,-13536.00,28.58,6446.00,2168.00,-240.00
91,2568.00,3284.00,-14596.00,28.39,5004.00,2802.00,930.00
92,2768.00,3124.00,-14540.00,28.53,2519.00,2224.00,2260.00
93,3692.00,3200.00,-14660.00,28.44,900.00,726.00,1125.00
94,4080.00,3004.00,-14452.00,28.44,496.00,-518.00,-1202.00
95,3360.00,2712.00,-14576.00,28.48,1058.00,-604.00,-1744.00
96,3420.00,2372.00,-14704.00,28.44,-270.00,-675.00,-1291.00
97,3528.00,1812.00,-14628.00,28.48,-525.00,-956.00,-1098.00
98,3508.00,1864.00,-14788.00,28.53,-1431.00,-1072.00,-1104.00
99,3352.00,3124.00,-15728.00,28.53,-3482.00,-2191.00,-2051.00
100,2680.00,2528.00,-13136.00,28.53,-2919.00,-2701.00,-3185.00
101,1076.00,2376.00,-12356.00,28.53,-2112.00,-1416.00,-488.00
102,4124.00,3980.00,-18064.00,28.58,-544.00,-756.00,362.00
103,5532.00,4176.00,-18812.00,28.53,-2766.00,-2950.00,-1284.00
104,3220.00,4244.00,-15144.00,28.53,-4193.00,-6005.00,-2314.00
105,480.00,4132.00,-12392.00,28.53,-1703.00,-5779.00,-3181.00
106,-1676.00,4056.00,-11488.00,28.44,-343.00,-4583.00,-2922.00
107,-3716.00,4732.00,-10896.00,28.44,-387.00,-3238.00,-894.00
108,-4836.00,5156.00,-12036.00,28.44,-3139.00,-1352.00,-48.00
109,-3956.00,6464.00,-11900.00,28.53,-2364.00,-1768.00,493.00
110,-3432.00,6404.00,-12824.00,28.53,-4090.00,361.00,-415.00
111,-2584.00,4464.00,-12744.00,28.44,-1681.00,4098.00,-1338.00
112,2016.00,5812.00,-16684.00,28.53,1569.00,6091.00,-28.00
113,2948.00,5048.00,-12180.00,28.58,-850.00,1680.00,255.00
114,4852.00,4676.00,-13484.00,28.48,-293.00,-1557.00,-203.00
115,4996.00,8188.00,-18168.00,28.58,-546.00,-1343.00,-2797.00
116,1352.00,5800.00,-16596.00,28.48,1313.00,-703.00,-5097.00
117,-812.00,4752.00,-14400.00,28.44,2316.00,-1737.00,-2649.00
118,-2564.00,2972.00,-11488.00,28.44,-361.00,-2892.00,-769.00
119,-4540.00,5104.00,-8056.00,28.53,-5114.00,-4426.00,-1441.00
120,-4048.00,7664.00,-10644.00,28.53,-1828.00,-1196.00,312.00
121,-3856.00,4976.00,-13408.00,28.53,-2977.00,2897.00,-193.00
122,-1496.00,4936.00,-17060.00,28.58,901.00,5087.00,816.00
123,-724.00,6532.00,-14732.00,28.44,816.00,1330.00,2522.00
124,-568.00,7088.00,-14392.00,28.53,262.00,350.00,2251.00
125,-84.00,7012.00,-12508.00,28.58,-1210.00,905.00,1392.00
126,228.00,5996.00,-12792.00,28.48,-2462.00,2102.00,-1417.00
127,1020.00,5040.00,-13332.00,28.48,-1317.00,554.00,-2232.00
128,0.00,7256.00,-14484.00,28.53,568.00,3373.00,-2114.00
129,-208.00,7772.00,-14468.00,28.53,1723.00,2206.00,-1333.00
130,952.00,6568.00,-14636.00,28.53,2516.00,883.00,-1240.00
131,888.00,6792.00,-15040.00,28.53,565.00,-1816.00,270.00
132,608.00,6364.00,-13800.00,28.48,686.00,-3219.00,297.00
133,476.00,7312.00,-14448.00,28.48,712.00,-2335.00,-694.00
134,108.00,6936.00,-14220.00,28.53,-384.00,-1145.00,-611.00
135,-292.00,4492.00,-13108.00,28.48,-944.00,-1762.00,-1531.00
136,-880.00,2980.00,-10932.00,28.48,-870.00,-1748.00,-1872.00
137,-852.00,4056.00,-11540.00,28.48,-79.00,-1472.00,-2043.00
138,-568.00,5804.00,-14516.00,28.34,2221.00,3673.00,636.00
139,-152.00,5828.00,-13192.00,28.53,2243.00,2513.00,1670.00
140,-864.00,5804.00,-13584.00,28.62,555.00,2975.00,1910.00
141,868.00,5440.00,-14472.00,28.53,70.00,3295.00,2152.00
142,816.00,4424.00,-12476.00,28.44,-2609.00,2487.00,2169.00
143,1796.00,5096.00,-17064.00,28.48,2641.00,2746.00,3148.00
144,1272.00,3272.00,-14320.00,28.44,778.00,-1254.00,2681.00
145,2748.00,6300.00,-16740.00,28.48,75.00,1594.00,2627.00
146,1952.00,4956.00,-13968.00,28.53,1596.00,376.00,-247.00
147,1968.00,4100.00,-14420.00,28.53,-78.00,257.00,860.00
148,2364.00,4016.00,-14068.00,28.53,-474.00,-421.00,1802.00
149,2380.00,3904.00,-14096.00,28.39,-293.00,-120.00,1528.00
150,2068.00,4120.00,-15088.00,28.62,-289.00,190.00,1642.00
151,2828.00,3832.00,-14216.00,28.48,239.00,952.00,1832.00
152,3304.00,3632.00,-14036.00,28.44,-177.00,126.00,1471.00
153,2240.00,4384.00,-14304.00,28.58,-902.00,-527.00,996.00
154,2164.00,4248.00,-13932.00,28.48,-1764.00,-516.00,1130.00
155,2044.00,5260.00,-14284.00,28.48,800.00,439.00,456.00
156,2540.00,4420.00,-14220.00,28.48,-513.00,87.00,-98.00
157,2824.00,4624.00,-14020.00,28.48,-131.00,-67.00,-502.00
158,3388.00,3728.00,-14148.00,28.53,-22.00,-375.00,-605.00
159,2408.00,3460.00,-14496.00,28.48,-393.00,-557.00,-562.00
160,2736.00,3760.00,-14172.00,28.53,-748.00,-259.00,265.00
161,3148.00,3824.00,-14208.00,28.48,-573.00,-66.00,155.00
162,2976.00,4076.00,-14256.00,28.48,-792.00,-201.00,-53.00
163,3020.00,3840.00,-13908.00,28.53,-510.00,-424.00,-319.00
164,2916.00,4120.00,-14224.00,28.39,-590.00,-505.00,-369.00
165,2532.00,4660.00,-14180.00,28.53,-751.00,-474.00,-632.00
166,2828.00,4404.00,-14360.00,28.58,-451.00,-479.00,-618.00
167,2768.00,4056.00,-14104.00,28.53,-776.00,-574.00,-869.00
168,2632.00,4180.00,-14104.00,28.53,-659.00,-730.00,-919.00
169,2176.00,4400.00,-14324.00,28.58,-571.00,-506.00,-637.00
170,2516.00,4636.00,-14368.00,28.53,-602.00,-124.00,-208.00
171,2716.00,4440.00,-14136.00,28.48,-347.00,-305.00,-796.00
172,2244.00,4176.00,-14356.00,28.53,-288.00,-401.00,-731.00
173,2216.00,4528.00,-14288.00,28.48,-600.00,-271.00,-164.00
174,2356.00,4552.00,-14028.00,28.44,-188.00,-156.00,-40.00
175,2772.00,4004.00,-14340.00,28.48,-71.00,-31.00,-38.00
176,2844.00,4140.00,-14448.00,28.58,-408.00,46.00,226.00
177,2480.00,4196.00,-13976.00,28.48,-138.00,378.00,554.00
178,3224.00,3340.00,-14288.00,28.58,2420.00,1053.00,-282.00
179,3192.00,3428.00,-14120.00,28.44,1149.00,1316.00,-713.00
180,2364.00,4208.00,-14284.00,28.48,105.00,770.00,-763.00
181,2256.00,4480.00,-14300.00,28.62,-630.00,645.00,599.00
182,2876.00,3800.00,-14192.00,28.53,-1.00,-152.00,1589.00
183,3208.00,4164.00,-14244.00,28.62,-554.00,-822.00,1832.00
184,2480.00,3932.00,-13964.00,28.48,-677.00,-1461.00,547.00
185,2396.00,4120.00,-14628.00,28.53,-1014.00,-488.00,344.00
186,2868.00,4252.00,-13900.00,28.48,-961.00,-74.00,-915.00
187,2736.00,4676.00,-14012.00,28.44,-776.00,73.00,-1904.00
188,2984.00,4076.00,-14128.00,28.48,-324.00,-565.00,-1908.00
189,2792.00,3688.00,-14304.00,28.53,-754.00,-722.00,-1752.00
190,2468.00,3804.00,-13952.00,28.53,-1388.00,-786.00,-2167.00
191,2788.00,4984.00,-13888.00,28.44,-1327.00,-529.00,-2627.00
192,2796.00,3556.00,-14432.00,28.48,-44.00,-317.00,-3299.00
193,3000.00,2600.00,-14220.00,28.58,3094.00,-196.00,-2556.00
194,3180.00,2748.00,-15244.00,28.62,3025.00,-431.00,-2229.00
195,3184.00,2596.00,-14948.00,28.53,100.00,-577.00,-1321.00
196,2712.00,2904.00,-14948.00,28.58,-1309.00,-641.00,-92.00
197,2520.00,3768.00,-14336.00,28.53,-1953.00,-613.00,377.00
198,2116.00,3564.00,-14340.00,28.48,-1172.00,-556.00,896.00
199,2120.00,3404.00,-14672.00,28.53,-772.00,-37.00,1288.00
200,2136.00,3848.00,-14244.00,28.58,-813.00,149.00,1481.00
201,2276.00,4336.00,-14308.00,28.62,-659.00,478.00,1049.00
202,2176.00,4260.00,-14168.00,28.58,-482.00,243.00,856.00
203,1932.00,4224.00,-14168.00,28.58,-358.00,651.00,542.00
204,2332.00,4216.00,-14500.00,28.48,-19.00,800.00,678.00
205,2676.00,3804.00,-14276.00,28.48,23.00,746.00,660.00
206,3096.00,3740.00,-14124.00,28.58,-178.00,450.00,548.00
207,3036.00,3540.00,-14012.00,28.48,-171.00,293.00,320.00
208,3188.00,3484.00,-14352.00,28.53,-509.00,271.00,323.00
209,3220.00,3468.00,-14392.00,28.53,-303.00,110.00,323.00
210,3096.00,3720.00,-14120.00,28.53,-813.00,20.00,-21.00
211,3320.00,4008.00,-14076.00,28.44,-691.00,-192.00,-168.00
212,3300.00,3812.00,-14204.00,28.53,-555.00,-323.00,-253.00
213,3084.00,3672.00,-14244.00,28.53,-708.00,-580.00,-258.00
214,2852.00,3824.00,-14264.00,28.53,-779.00,-593.00,-320.00
215,3160.00,3928.00,-14152.00,28.48,-710.00,-514.00,-389.00
216,3080.00,3948.00,-14084.00,28.53,-622.00,-523.00,-526.00
217,2980.00,4088.00,-14296.00,28.58,-518.00,-565.00,-640.00
218,2908.00,4012.00,-14176.00,28.53,-930.00,-897.00,-245.00
219,2804.00,4296.00,-14108.00,28.48,-540.00,-449.00,-364.00
220,2664.00,4068.00,-14220.00,28.62,-488.00,-307.00,-331.00
221,2756.00,4068.00,-14016.00,28.48,-420.00,-246.00,-308.00
222,2928.00,4180.00,-14088.00,28.53,-378.00,-204.00,-170.00
223,2676.00,4148.00,-14040.00,28.53,-427.00,-274.00,-182.00
224,2620.00,4276.00,-14176.00,28.58,-279.00,-190.00,-78.00
225,2776.00,4164.00,-14264.00,28.53,-327.00,-191.00,-64.00
226,2728.00,4104.00,-14132.00,28.53,-308.00,-115.00,-121.00
227,2772.00,4124.00,-14176.00,28.58,-258.00,-94.00,-39.00
228,2732.00,4160.00,-14084.00,28.53,-421.00,-172.00,-183.00
229,2732.00,4076.00,-14168.00,28.53,-370.00,-233.00,-177.00
230,2808.00,4184.00,-14112.00,28.62,-298.00,-180.00,-154.00
231,2772.00,3996.00,-14180.00,28.48,-404.00,-189.00,-99.00
232,2820.00,4072.00,-14300.00,28.53,-367.00,-200.00,-105.00
233,2804.00,4224.00,-14156.00,28.48,-325.00,-240.00,-154.00
234,2652.0
Sample,aX,aY,az,Temp,gX,gY,gz
1,2756.00,4172.00,-14212.00,28.62,-340.00,-195.00,-110.00
2,2940.00,4176.00,-14228.00,28.53,-439.00,-233.00,-171.00
3,2776.00,4268.00,-14100.00,28.58,-375.00,-201.00,-198.00
4,2672.00,4216.00,-14168.00,28.58,-385.00,-212.00,-192.00
5,2676.00,4192.00,-14152.00,28.67,-398.00,-215.00,-135.00
6,2788.00,4256.00,-14296.00,28.53,-396.00,-187.00,-75.00
7,2736.00,4212.00,-14220.00,28.62,-393.00,-208.00,-99.00
8,2784.00,4248.00,-14124.00,28.53,-252.00,-171.00,-89.00
9,2704.00,4200.00,-14084.00,28.62,-363.00,-162.00,-123.00
10,2716.00,4092.00,-14244.00,28.53,-299.00,-149.00,-138.00
11,2748.00,4208.00,-14092.00,28.58,-345.00,-183.00,-105.00
12,2708.00,4316.00,-14364.00,28.62,-410.00,-185.00,-69.00
13,2792.00,4288.00,-14128.00,28.53,-425.00,-149.00,-193.00
14,2840.00,4240.00,-14148.00,28.67,-348.00,-195.00,-160.00
15,2756.00,4204.00,-14152.00,28.62,-513.00,-226.00,-158.00
16,2648.00,4320.00,-14108.00,28.62,-498.00,-239.00,-84.00
17,2768.00,4256.00,-14016.00,28.58,-500.00,-226.00,-174.00
18,2756.00,4328.00,-13900.00,28.62,-443.00,-198.00,-183.00
19,2724.00,4332.00,-14000.00,28.58,-377.00,-207.00,-176.00
20,2820.00,4352.00,-14168.00,28.53,-402.00,-242.00,-221.00
21,2692.00,4248.00,-13960.00,28.62,-345.00,-233.00,-149.00
22,2488.00,4348.00,-14132.00,28.58,-278.00,-221.00,-208.00
23,2692.00,4308.00,-14080.00,28.58,-250.00,-140.00,-120.00
24,2776.00,4152.00,-14264.00,28.53,-303.00,-161.00,-162.00
25,2684.00,4244.00,-14060.00,28.58,-244.00,-141.00,-196.00
26,2740.00,4212.00,-14292.00,28.58,-312.00,-160.00,-172.00
27,2648.00,4296.00,-14192.00,28.53,-293.00,-132.00,-91.00
28,2680.00,4420.00,-14188.00,28.62,-276.00,-113.00,-79.00
29,2636.00,4324.00,-14052.00,28.48,-319.00,-147.00,-142.00
30,2776.00,4264.00,-14220.00,28.58,-278.00,-82.00,-142.00
31,2924.00,4228.00,-14068.00,28.53,-199.00,-47.00,-187.00
32,2840.00,4200.00,-14116.00,28.62,-333.00,-122.00,-197.00
33,2880.00,4124.00,-14164.00,28.58,-211.00,-125.00,-234.00
34,2784.00,4160.00,-14128.00,28.62,-423.00,-178.00,-221.00
35,2860.00,4248.00,-14192.00,28.62,-313.00,-128.00,-94.00
36,3024.00,4192.00,-14144.00,28.58,-299.00,-137.00,-185.00
37,2856.00,4208.00,-14252.00,28.58,-366.00,-167.00,-251.00
38,2648.00,4172.00,-14188.00,28.53,-380.00,-163.00,-201.00
39,2900.00,4204.00,-14112.00,28.58,-345.00,-151.00,-123.00
40,2732.00,4244.00,-14032.00,28.53,-361.00,-157.00,-123.00
41,2840.00,4044.00,-14200.00,28.53,-302.00,-171.00,-182.00
42,2736.00,4168.00,-14200.00,28.58,-309.00,-161.00,-143.00
43,2864.00,4196.00,-14152.00,28.62,-387.00,-189.00,-187.00
44,2772.00,4232.00,-14264.00,28.58,-345.00,-219.00,-142.00
45,2748.00,4168.00,-14156.00,28.62,-427.00,-230.00,-238.00
46,2852.00,4224.00,-14160.00,28.53,-435.00,-258.00,-122.00
47,2832.00,4204.00,-14164.00,28.58,-421.00,-242.00,-174.00
48,2676.00,4212.00,-14356.00,28.62,-377.00,-208.00,-246.00
49,2856.00,4120.00,-14064.00,28.58,-427.00,-225.00,-126.00
50,2868.00,4212.00,-14084.00,28.62,-440.00,-257.00,-197.00
51,2756.00,4308.00,-14188.00,28.53,-391.00,-195.00,-141.00
52,2816.00,4216.00,-14088.00,28.48,-351.00,-199.00,-144.00
53,2728.00,4252.00,-14164.00,28.62,-344.00,-192.00,-165.00
54,2824.00,4260.00,-14148.00,28.62,-341.00,-163.00,-134.00
55,2728.00,4208.00,-14160.00,28.67,-410.00,-208.00,-148.00
56,2876.00,4156.00,-14024.00,28.62,-396.00,-191.00,-190.00
57,2744.00,4340.00,-14196.00,28.53,-468.00,-234.00,-125.00
58,2732.00,4288.00,-14064.00,28.58,-365.00,-225.00,-130.00
59,2808.00,4360.00,-14076.00,28.53,-503.00,-234.00,-236.00
60,2884.00,4312.00,-14044.00,28.53,-317.00,-210.00,-206.00
61,2804.00,4292.00,-14024.00,28.58,-443.00,-239.00,-157.00
62,2856.00,4284.00,-14204.00,28.58,-327.00,-217.00,-173.00
63,2844.00,4384.00,-14132.00,28.62,-357.00,-221.00,-198.00
64,2632.00,4260.00,-14148.00,28.62,-257.00,-203.00,-201.00
65,2636.00,4272.00,-14204.00,28.67,-336.00,-173.00,-175.00
66,2728.00,4280.00,-14148.00,28.62,-246.00,-160.00,-171.00
67,2816.00,4212.00,-14084.00,28.58,-362.00,-189.00,-158.00
68,2880.00,4320.00,-14072.00,28.53,-311.00,-219.00,-180.00
69,2752.00,4252.00,-14288.00,28.53,-314.00,-175.00,-183.00
70,2740.00,4328.00,-14296.00,28.58,-284.00,-147.00,-110.00
71,2836.00,4224.00,-14076.00,28.62,-317.00,-199.00,-233.00
72,2788.00,4236.00,-14040.00,28.58,-326.00,-198.00,-185.00
73,2828.00,4212.00,-14236.00,28.62,-405.00,-205.00,-125.00
74,2764.00,4368.00,-14172.00,28.62,-358.00,-167.00,-140.00
75,2700.00,4388.00,-14132.00,28.67,-329.00,-166.00,-155.00
76,2784.00,4256.00,-14208.00,28.53,-261.00,-178.00,-198.00
77,2800.00,4220.00,-14144.00,28.62,-352.00,-145.00,-144.00
78,2772.00,4328.00,-14136.00,28.58,-291.00,-142.00,-147.00
79,2844.00,4256.00,-14132.00,28.62,-343.00,-220.00,-139.00
80,2704.00,4260.00,-14088.00,28.58,-303.00,-145.00,-174.00
81,2776.00,4272.00,-14124.00,28.53,-274.00,-182.00,-63.00
82,2856.00,4204.00,-14292.00,28.62,-332.00,-229.00,-145.00
83,2792.00,4212.00,-14204.00,28.58,-376.00,-269.00,-183.00
84,2788.00,4208.00,-14156.00,28.62,-374.00,-259.00,-99.00
85,2788.00,4228.00,-14052.00,28.53,-395.00,-244.00,-146.00
86,2752.00,4296.00,-14164.00,28.58,-351.00,-217.00,-180.00
87,2660.00,4216.00,-14100.00,28.53,-360.00,-191.00,-155.00
88,2832.00,4328.00,-14128.00,28.62,-284.00,-160.00,-114.00
89,2848.00,4256.00,-14176.00,28.58,-337.00,-184.00,-120.00
90,2616.00,4352.00,-14168.00,28.62,-291.00,-196.00,-117.00
91,2732.00,4252.00,-14144.00,28.67,-292.00,-194.00,-183.00
92,2788.00,4200.00,-14144.00,28.72,-297.00,-189.00,-101.00
93,2876.00,4220.00,-14028.00,28.53,-309.00,-334.00,-79.00
94,2700.00,4224.00,-14192.00,28.58,-524.00,-203.00,-8.00
95,2752.00,4292.00,-14184.00,28.62,-483.00,-59.00,185.00
96,2832.00,4260.00,-14100.00,28.53,-418.00,-77.00,75.00
97,2892.00,4328.00,-14264.00,28.53,-332.00,-117.00,-52.00
98,2888.00,4276.00,-14156.00,28.53,-340.00,-211.00,-158.00
99,2844.00,4256.00,-14208.00,28.53,-274.00,-293.00,-241.00
100,2736.00,4248.00,-14056.00,28.48,-279.00,-229.00,-220.00
101,2764.00,4200.00,-14088.00,28.67,-400.00,-315.00,-205.00
102,2772.00,4200.00,-14032.00,28.53,-420.00,-280.00,-256.00
103,2728.00,4312.00,-14132.00,28.58,-420.00,-309.00,-254.00
104,2796.00,4160.00,-14140.00,28.53,-416.00,-237.00,-180.00
105,2712.00,4336.00,-14180.00,28.67,-306.00,-214.00,-279.00
106,3064.00,4440.00,-14320.00,28.62,-411.00,-489.00,-120.00
107,2688.00,4476.00,-14188.00,28.67,-308.00,-313.00,-516.00
108,2952.00,4076.00,-14268.00,28.62,34.00,-198.00,-534.00
109,2944.00,4084.00,-14436.00,28.67,-165.00,-225.00,-382.00
110,2672.00,3792.00,-13880.00,28.62,62.00,-216.00,-367.00
111,2472.00,3712.00,-14368.00,28.67,-337.00,-350.00,-170.00
112,2256.00,4532.00,-14216.00,28.62,-477.00,-371.00,-157.00
113,2328.00,4192.00,-13976.00,28.58,-322.00,-328.00,-264.00
114,2288.00,4264.00,-13880.00,28.72,-464.00,-196.00,-243.00
115,2524.00,4116.00,-14076.00,28.58,-461.00,-281.00,-180.00
116,2632.00,4232.00,-14256.00,28.62,-325.00,-209.00,-208.00
117,2724.00,4256.00,-14132.00,28.62,-143.00,-80.00,-240.00
118,2696.00,4056.00,-14304.00,28.58,-94.00,-179.00,-274.00
119,2620.00,3948.00,-14108.00,28.67,-218.00,-183.00,-36.00
120,2556.00,4048.00,-14204.00,28.62,-401.00,-103.00,108.00
121,2736.00,4116.00,-14288.00,28.67,-468.00,-172.00,-7.00
122,2492.00,4332.00,-14168.00,28.62,-216.00,-183.00,-139.00
123,2708.00,4100.00,-14228.00,28.67,-338.00,-167.00,-174.00
124,2588.00,3936.00,-14300.00,28.62,-344.00,-149.00,-310.00
125,2824.00,3940.00,-14168.00,28.58,-356.00,-200.00,-57.00
126,2636.00,4228.00,-14348.00,28.62,-364.00,-286.00,-117.00
127,2432.00,4204.00,-14164.00,28.58,-380.00,-216.00,-138.00
128,2644.00,4088.00,-14216.00,28.62,-300.00,-197.00,-242.00
129,2572.00,4184.00,-14332.00,28.62,-276.00,-184.00,-238.00
130,2732.00,4068.00,-14304.00,28.67,-419.00,-160.00,-178.00
131,2612.00,4120.00,-14248.00,28.62,-403.00,-197.00,-288.00
132,2532.00,4004.00,-14248.00,28.67,-370.00,-202.00,-192.00
133,2756.00,4112.00,-14124.00,28.62,-295.00,-182.00,-234.00
134,2608.00,4080.00,-14228.00,28.62,-412.00,-238.00,-173.00
135,2736.00,4036.00,-14100.00,28.67,-399.00,-237.00,-197.00
136,2624.00,4108.00,-14164.00,28.62,-411.00,-258.00,-184.00
137,2648.00,4160.00,-14112.00,28.58,-490.00,-278.00,-254.00
138,2548.00,4224.00,-14124.00,28.53,-462.00,-265.00,-246.00
139,2584.00,4164.00,-14148.00,28.58,-413.00,-234.00,-241.00
140,2636.00,4128.00,-14300.00,28.67,-394.00,-221.00,-205.00
141,2476.00,4224.00,-14152.00,28.62,-383.00,-184.00,-226.00
142,2512.00,4116.00,-14116.00,28.58,-339.00,-223.00,-185.00
143,2432.00,4224.00,-14108.00,28.53,-401.00,-189.00,-161.00
144,2524.00,4172.00,-14240.00,28.58,-338.00,-173.00,-182.00
145,2516.00,4124.00,-14164.00,28.67,-346.00,-191.00,-170.00
146,2520.00,4200.00,-14284.00,28.72,-378.00,-202.00,-132.00
147,2472.00,4164.00,-14244.00,28.67,-333.00,-206.00,-121.00
148,2668.00,4220.00,-14088.00,28.62,-356.00,-148.00,-131.00
149,2556.00,4032.00,-14128.00,28.58,-395.00,-187.00,-175.00
150,2560.00,4224.00,-14292.00,28.67,-303.00,-202.00,-170.00
151,2496.00,4204.00,-14172.00,28.62,-310.00,-181.00,-146.00
152,2540.00,4224.00,-14156.00,28.58,-221.00,-149.00,-162.00
153,2484.00,4168.00,-14216.00,28.62,-320.00,-211.00,-228.00
154,2672.00,4140.00,-14356.00,28.58,-308.00,-149.00,-139.00
155,2680.00,4060.00,-14272.00,28.48,-317.00,-138.00,-221.00
156,2740.00,4128.00,-14296.00,28.62,-425.00,-234.00,-190.00
157,2512.00,4152.00,-14304.00,28.58,-380.00,-247.00,-199.00
158,2600.00,4132.00,-14276.00,28.53,-339.00,-177.00,-211.00
159,2648.00,4160.00,-14340.00,28.62,-384.00,-178.00,-200.00
160,2600.00,4264.00,-14216.00,28.58,-300.00,-212.00,-300.00
161,2452.00,4196.00,-14184.00,28.62,-367.00,-183.00,-247.00
162,2484.00,4180.00,-14164.00,28.67,-327.00,-168.00,-181.00
163,2716.00,4100.00,-14288.00,28.53,-344.00,-147.00,-204.00
164,2520.00,4188.00,-14236.00,28.58,-504.00,-189.00,-335.00
165,2492.00,4256.00,-14060.00,28.67,-400.00,-151.00,-479.00
166,2392.00,4108.00,-14204.00,28.72,-275.00,-261.00,-304.00
167,2752.00,4044.00,-14008.00,28.58,-400.00,-279.00,-172.00
168,2564.00,4120.00,-14196.00,28.72,-507.00,-283.00,-307.00
169,2688.00,4180.00,-14580.00,28.53,-481.00,-247.00,-500.00
170,2576.00,4280.00,-15244.00,28.67,-2385.00,-225.00,-760.00
171,2432.00,5252.00,-15844.00,28.72,-4380.00,-15.00,-4278.00
172,1528.00,7880.00,-16720.00,28.62,-3964.00,-2164.00,-5857.00
173,192.00,7688.00,-14760.00,28.72,-811.00,-4864.00,-6882.00
174,-628.00,5164.00,-12792.00,28.67,-1934.00,-5169.00,-9596.00
175,-1632.00,5120.00,-12184.00,28.81,-4079.00,-5298.00,-12006.00
176,-4212.00,6068.00,-13124.00,28.67,-8283.00,-2759.00,-11446.00
177,-3000.00,10080.00,-15464.00,28.62,-9304.00,-56.00,-9274.00
178,-3180.00,9676.00,-13520.00,28.62,-14396.00,-746.00,-7376.00
179,-4496.00,10104.00,-11372.00,28.67,-13980.00,6.00,-2584.00
180,-3748.00,11088.00,-10588.00,28.72,-11402.00,2883.00,-195.00
181,-8860.00,26108.00,-7620.00,28.67,-10708.00,904.00,1562.00
182,-3032.00,13036.00,-8156.00,28.77,-5243.00,1374.00,4949.00
183,-2576.00,14036.00,-7080.00,28.67,-9044.00,-22.00,5211.00
184,-2864.00,12680.00,-5008.00,28.62,-10660.00,-972.00,4672.00
185,-2096.00,13308.00,-4100.00,28.53,-4943.00,-683.00,6435.00
186,2756.00,16160.00,-2640.00,28.72,-559.00,546.00,10775.00
187,3684.00,11336.00,-1440.00,28.67,9288.00,6501.00,12351.00
188,5532.00,8624.00,-1472.00,28.67,7944.00,11613.00,14321.00
189,10236.00,10284.00,-3336.00,28.62,19792.00,21082.00,13971.00
190,10872.00,5140.00,-8180.00,28.67,-1598.00,17278.00,11498.00
191,7928.00,9248.00,-6332.00,28.67,-408.00,9025.00,6678.00
192,12220.00,9592.00,-7336.00,28.62,-4347.00,5616.00,6755.00
193,12120.00,12280.00,-3952.00,28.62,-5418.00,5814.00,7846.00
194,13928.00,8292.00,-1272.00,28.62,-14994.00,2693.00,6277.00
195,16256.00,8988.00,-3136.00,28.72,-5793.00,5980.00,11325.00
196,14708.00,7956.00,392.00,28.62,-5262.00,1505.00,8424.00
197,16184.00,8024.00,-820.00,28.53,-5568.00,-2412.00,4046.00
198,16572.00,7648.00,568.00,28.62,-3531.00,-4186.00,2469.00
199,15152.00,6912.00,260.00,28.67,-1344.00,-3031.00,1408.00
200,16676.00,6824.00,248.00,28.62,-1518.00,-4672.00,959.00
201,15260.00,5812.00,-1888.00,28.58,-5740.00,-7751.00,156.00
202,18244.00,6076.00,-2372.00,28.67,-10644.00,-9424.00,-4960.00
203,14220.00,4484.00,-3032.00,28.67,-8920.00,-5474.00,-4888.00
204,11040.00,4592.00,-4008.00,28.62,-2434.00,-2481.00,-2804.00
205,12048.00,5452.00,-3412.00,28.62,-2519.00,-163.00,207.00
206,15216.00,7156.00,-4816.00,28.67,-1784.00,1148.00,1941.00
207,14316.00,6144.00,-4168.00,28.67,650.00,3125.00,1193.00
208,14748.00,6088.00,-4048.00,28.67,2351.00,2942.00,-139.00
209,13964.00,6084.00,-3820.00,28.72,3127.00,3475.00,-675.00
210,14136.00,6364.00,-308.00,28.62,3747.00,3013.00,-2621.00
211,19168.00,7168.00,-2892.00,28.62,6685.00,6551.00,-1245.00
212,16672.00,7860.00,216.00,28.62,7235.00,5332.00,317.00
213,14880.00,8132.00,-468.00,28.62,1811.00,1494.00,652.00
214,13776.00,6884.00,-580.00,28.62,-3599.00,734.00,-1809.00
215,14048.00,6464.00,92.00,28.62,-85.00,1390.00,-183.00
216,14648.00,6948.00,340.00,28.58,-115.00,800.00,617.00
217,15288.00,7092.00,528.00,28.67,-2806.00,53.00,1436.00
218,16192.00,7476.00,448.00,28.67,-2678.00,315.00,1814.00
219,17036.00,7484.00,-420.00,28.77,-2589.00,479.00,1521.00
220,14600.00,6708.00,-708.00,28.62,-3781.00,-1588.00,470.00
221,16340.00,6776.00,-1204.00,28.62,-2929.00,-3558.00,1075.00
222,14516.00,7364.00,-52.00,28.72,-8383.00,-7713.00,1123.00
223,15740.00,6204.00,-780.00,28.72,-11422.00,-5545.00,-5206.00
224,17688.00,6484.00,-1504.00,28.62,-2183.00,-2191.00,-2227.00
225,13400.00,5812.00,-1160.00,28.72,-6452.00,-4066.00,-3614.00
226,13356.00,4844.00,-896.00,28.72,-330.00,-760.00,-2994.00
227,14340.00,5564.00,-280.00,28.62,1459.00,1916.00,-744.00
228,14540.00,6344.00,-152.00,28.72,218.00,3039.00,1509.00
229,14264.00,7140.00,128.00,28.58,-1613.00,3398.00,1915.00
230,13088.00,8204.00,704.00,28.58,-6967.00,2237.00,1404.00
231,16632.00,7708.00,1684.00,28.72,-9135.00,3082.00,862.00
232,17336.00,8916.00,904.00,28.72,256.00,6087.00,4065.00
233,14844.00,8732.00,64.00,28.58,-6262.00,2224.00,721.00
234,15980.00,9188.00,2604.00,28.67,2575.00,3288.00,3215.00
235,13256.00,8008.00,4052.00,28.67,712.00,780.00,1920.00
236,14080.00,7004.00,3820.00,28.67,-2788.00,-1094.00,-352.00
237,15800.00,5920.00,3940.00,28.72,-4978.00,-2932.00,239.00
238,16636.00,6960.00,3184.00,28.62,-1450.00,-2079.00,1788.00
239,17748.00,8168.00,2084.00,28.67,2001.00,-424.00,765.00
240,16100.00,7736.00,2852.00,28.62,-2117.00,-2285.00,-1970.00
241,16332.00,7976.00,1820.00,28.58,-2547.00,-4275.00,-4098.00
242,18748.00,7864.00,2528.00,28.58,-4869.00,-6631.00,-6281.00
243,15372.00,6548.00,3632.00,28.67,-9480.00,-8008.00,-8342.00
244,15856.00,7184.00,-1488.00,28.67,-1229.00,-924.00,-3989.00
245,11764.00,7100.00,2276.00,28.62,2047.00,-790.00,-3449.00
246,12036.00,6788.00,1212.00,28.67,-1259.00,-2734.00,-2490.00
247,13148.00,7932.00,2336.00,28.67,886.00,186.00,1330.00
248,14076.00,8960.00,1340.00,28.58,1854.00,2123.00,1625.00
249,13548.00,7968.00,1456.00,28.72,-1908.00,557.00,653.00
250,13116.00,7876.00,1496.00,28.72,-1875.00,1205.00,1403.00
251,12312.00,7536.00,1580.00,28.53,633.00,3448.00,2594.00
252,17776.00,9556.00,1084.00,28.72,4050.00,5577.00,5088.00
253,16220.00,8952.00,2580.00,28.67,9101.00,4942.00,6667.00
254,19164.00,9416.00,2860.00,28.58,8980.00,4069.00,4666.00
255,14712.00,8824.00,2044.00,28.53,4458.00,3418.00,734.00
256,12852.00,6952.00,1860.00,28.67,3130.00,2289.00,-1940.00
257,14544.00,6920.00,2136.00,28.62,1222.00,298.00,-1070.00
258,15844.00,7504.00,2700.00,28.62,602.00,-943.00,508.00
259,15556.00,7424.00,2704.00,28.62,-34.00,-1038.00,574.00
260,15056.00,6992.00,1680.00,28.72,587.00,-673.00,799.00
261,17036.00,7876.00,1412.00,28.67,-1585.00,-2749.00,-40.00
262,19868.00,9136.00,2156.00,28.62,-5745.00,-5819.00,-1676.00
263,12716.00,6660.00,1536.00,28.53,-9273.00,-6960.00,-5765.00
264,16400.00,5904.00,-312.00,28.62,-1191.00,-1700.00,-4156.00
265,14036.00,6464.00,812.00,28.67,534.00,-2451.00,-1489.00
266,13376.00,6128.00,548.00,28.62,-2094.00,-1954.00,-329.00
267,13296.00,6788.00,1172.00,28.58,929.00,1029.00,1441.00
268,14396.00,7056.00,1004.00,28.77,1656.00,2436.00,2762.00
269,14240.00,7504.00,1108.00,28.72,3529.00,3869.00,3254.00
270,14672.00,7376.00,796.00,28.67,1202.00,3851.00,2343.00
271,15552.00,7592.00,108.00,28.67,6259.00,5976.00,3607.00
272,17956.00,7620.00,640.00,28.72,9266.00,6469.00,2126.00
273,13576.00,5996.00,808.00,28.72,7283.00,3928.00,-378.00
274,18448.00,6508.00,2348.00,28.62,5171.00,2939.00,-862.00
275,18184.00,8424.00,2780.00,28.58,6314.00,1045.00,2133.00
276,13800.00,6868.00,2116.00,28.62,-1777.00,-1458.00,-2349.00
277,12936.00,5260.00,2904.00,28.62,-408.00,-582.00,-2235.00
278,16252.00,6232.00,2672.00,28.67,34.00,-615.00,57.00
279,16108.00,7752.00,2516.00,28.62,-945.00,-1990.00,985.00
280,15632.00,6992.00,1916.00,28.67,-6562.00,-3599.00,-1510.00
281,16264.00,7036.00,1552.00,28.58,-2667.00,-2808.00,-298.00
282,16900.00,7588.00,1732.00,28.67,-4402.00,-3989.00,-245.00
283,13820.00,5844.00,940.00,28.72,-5891.00,-4379.00,-1709.00
284,18044.00,6820.00,168.00,28.72,143.00,-800.00,-999.00
285,17216.00,7628.00,-688.00,28.72,2202.00,-912.00,-20.00
286,12920.00,6040.00,-456.00,28.67,-5150.00,-3334.00,-2275.00
287,12648.00,5848.00,1112.00,28.67,-1490.00,-1488.00,-1572.00
288,14672.00,6388.00,996.00,28.67,-532.00,564.00,500.00
289,14864.00,7008.00,1348.00,28.67,124.00,1602.00,1633.00
290,14288.00,7068.00,836.00,28.67,-1514.00,1218.00,293.00
291,14380.00,6944.00,540.00,28.62,-595.00,2404.00,114.00
292,17828.00,7624.00,984.00,28.53,2158.00,4236.00,820.00
293,17216.00,7528.00,1460.00,28.62,5471.00,4809.00,917.00
294,13012.00,6568.00,2528.00,28.62,2538.00,2768.00,-76.00
295,17768.00,8096.00,2196.00,28.72,4447.00,2990.00,2857.00
296,16140.00,8616.00,2500.00,28.62,1619.00,789.00,882.00
297,14172.00,7116.00,2072.00,28.72,-1247.00,-761.00,-2067.00
298,14564.00,6296.00,1920.00,28.67,-972.00,-561.00,-2340.00
299,15428.00,6892.00,2016.00,28.72,440.00,-794.00,280.00
300,15292.00,7488.00,2336.00,28.72,-2679.00,-2291.00,421.00
301,15556.00,7332.00,1792.00,28.62,-2478.00,-2309.00,571.00
302,16832.00,7824.00,1616.00,28.67,-1986.00,-2281.00,334.00
303,17420.00,7632.00,1436.00,28.72,-2540.00,-2673.00,651.00
304,11324.00,5316.00,1936.00,28.67,-3386.00,-3323.00,-1255.00
305,21312.00,7460.00,1036.00,28.58,218.00,-879.00,-133.00
306,17020.00,7452.00,1052.00,28.62,-3844.00,-3156.00,-1549.00
307,13496.00,4904.00,-692.00,28.53,-4654.00,-1491.00,-3153.00
308,12484.00,5156.00,544.00,28.72,-1570.00,-988.00,-846.00
309,14056.00,6388.00,1020.00,28.77,-592.00,-205.00,1936.00
310,14708.00,7776.00,1024.00,28.72,939.00,1286.00,2823.00
311,15348.00,8248.00,804.00,28.67,1320.00,1129.00,1212.00
312,16060.00,7564.00,1320.00,28.58,-2207.00,-291.00,-1826.00
313,16276.00,6348.00,1396.00,28.62,-321.00,2666.00,-1858.00
314,16048.00,6460.00,1860.00,28.62,7455.00,5123.00,881.00
315,13932.00,6180.00,2332.00,28.67,4527.00,3487.00,898.00
316,17328.00,8284.00,2312.00,28.67,6620.00,2674.00,3473.00
317,16528.00,8588.00,1900.00,28.62,-605.00,-363.00,89.00
318,14228.00,6960.00,2096.00,28.62,-722.00,-585.00,-1678.00
319,15084.00,6496.00,1700.00,28.72,375.00,-320.00,-1550.00
320,15344.00,6696.00,1888.00,28.62,-10.00,-1237.00,-540.00
321,14728.00,6440.00,1768.00,28.72,-3557.00,-2515.00,-174.00
322,15016.00,6456.00,1888.00,28.58,-2539.00,-2146.00,1004.00
323,18188.00,7652.00,2476.00,28.67,-1582.00,-1801.00,2294.00
324,11844.00,6068.00,1716.00,28.67,-1308.00,-2375.00,1057.00
325,19360.00,6828.00,-92.00,28.53,-3022.00,-2672.00,-326.00
326,19428.00,7424.00,240.00,28.62,-3044.00,-3784.00,-1239.00
327,15744.00,5628.00,-548.00,28.67,-2744.00,-3987.00,-2960.00
328,12304.00,4212.00,68.00,28.72,-5854.00,-4596.00,-3185.00
329,12568.00,4988.00,1360.00,28.77,-1806.00,-1825.00,387.00
330,14012.00,7300.00,1556.00,28.62,2325.00,1750.00,3399.00
331,14932.00,8336.00,-48.00,28.77,2374.00,2893.00,2527.00
332,15580.00,7888.00,-924.00,28.62,5.00,1602.00,919.00
333,15492.00,7104.00,-1228.00,28.67,1291.00,1363.00,-39.00
334,14952.00,6288.00,-816.00,28.62,2162.00,1117.00,-1408.00
335,16196.00,5736.00,292.00,28.58,5003.00,2023.00,-1532.00
336,15380.00,5644.00,852.00,28.62,3842.00,1418.00,-1782.00
337,15812.00,5260.00,2972.00,28.67,694.00,1050.00,-1622.00
338,19100.00,8472.00,1188.00,28.72,6496.00,3458.00,3628.00
339,14336.00,7676.00,1340.00,28.62,-3790.00,-840.00,-500.00
340,14104.00,5940.00,936.00,28.53,453.00,1640.00,-629.00
341,15684.00,6728.00,584.00,28.62,3033.00,1697.00,1108.00
342,15968.00,7488.00,744.00,28.77,12.00,-511.00,628.00
343,15152.00,6340.00,652.00,28.62,-3529.00,-1668.00,-478.00
344,16008.00,6304.00,604.00,28.62,-1083.00,-1825.00,522.00
345,17284.00,6492.00,788.00,28.62,-4658.00,-3925.00,1077.00
346,13364.00,5112.00,1076.00,28.72,-5729.00,-3253.00,-201.00
347,17500.00,4940.00,48.00,28.72,-754.00,699.00,-1223.00
348,17444.00,6104.00,772.00,28.62,-3350.00,-2840.00,-1095.00
349,14812.00,4824.00,528.00,28.72,-9490.00,-3771.00,-2373.00
350,14328.00,4936.00,296.00,28.67,-1476.00,20.00,-505.00
351,14292.00,6124.00,232.00,28.67,-709.00,560.00,511.00
352,14828.00,6812.00,484.00,28.62,76.00,1080.00,1545.00
353,15640.00,7732.00,-72.00,28.62,1428.00,1795.00,1852.00
354,15520.00,7880.00,-312.00,28.67,339.00,420.00,154.00
355,15004.00,7180.00,-596.00,28.62,-1920.00,-424.00,-2168.00
356,14904.00,5900.00,428.00,28.62,1842.00,737.00,-2562.00
357,16224.00,5356.00,1344.00,28.62,2568.00,1730.00,-2189.00
358,18400.00,6836.00,3032.00,28.62,6751.00,3001.00,1432.00
359,16364.00,7764.00,1956.00,28.58,3546.00,2376.00,2530.00
360,13152.00,6600.00,1284.00,28.58,-71.00,1361.00,-137.00
361,14492.00,6836.00,1308.00,28.62,2273.00,1716.00,874.00
362,15784.00,7396.00,1672.00,28.62,-153.00,-177.00,822.00
363,16112.00,7444.00,2108.00,28.72,-2866.00,-1579.00,-528.00
364,15632.00,6660.00,1392.00,28.62,-2790.00,-1040.00,-1973.00
365,16140.00,6224.00,336.00,28.62,-1666.00,-1540.00,-735.00
366,17516.00,7224.00,620.00,28.67,-2937.00,-3652.00,380.00
367,17312.00,6988.00,1152.00,28.72,-4853.00,-5082.00,-462.00
368,11156.00,4140.00,1524.00,28.72,-6518.00,-3176.00,-2820.00
369,19700.00,6708.00,1264.00,28.62,3159.00,685.00,1426.00
370,16444.00,7176.00,1720.00,28.72,-5595.00,-2408.00,-1976.00
371,13896.00,5320.00,80.00,28.62,-3422.00,695.00,-1838.00
372,13628.00,6560.00,384.00,28.72,100.00,454.00,-222.00
373,15116.00,7192.00,564.00,28.72,1112.00,640.00,1437.00
374,14880.00,7956.00,456.00,28.62,2269.00,1357.00,1795.00
375,15400.00,7916.00,484.00,28.67,675.00,596.00,235.00
376,14956.00,6996.00,552.00,28.62,-150.00,-124.00,-654.00
377,15432.00,6416.00,784.00,28.62,-406.00,1350.00,-1739.00
378,16424.00,6804.00,1156.00,28.58,8726.00,4827.00,517.00
379,14372.00,6132.00,1744.00,28.72,5290.00,2616.00,-229.00
380,17948.00,8132.00,1216.00,28.58,5566.00,2769.00,3141.00
381,13800.00,7704.00,1904.00,28.58,-881.00,-101.00,1119.00
382,13840.00,6872.00,1908.00,28.62,1086.00,951.00,724.00
383,16008.00,7772.00,1416.00,28.62,1968.00,441.00,864.00
384,16888.00,8328.00,1816.00,28.62,-991.00,-2198.00,-348.00
385,15752.00,6780.00,1520.00,28.67,-6056.00,-3367.00,-3323.00
386,15708.00,5360.00,1060.00,28.67,-3720.00,-2683.00,-1697.00
387,18000.00,7052.00,796.00,28.67,-1619.00,-2566.00,1941.00
388,14388.00,6728.00,1320.00,28.72,-4963.00,-3879.00,304.00
389,14364.00,5296.00,1564.00,28.67,-3270.00,-1245.00,-2159.00
390,18544.00,7148.00,788.00,28.58,2631.00,182.00,450.00
391,15104.00,5944.00,48.00,28.58,-5961.00,-2169.00,-2429.00
392,13200.00,5432.00,132.00,28.72,-169.00,403.00,-990.00
393,14160.00,6572.00,304.00,28.72,1471.00,1247.00,656.00
394,14952.00,7588.00,352.00,28.58,1795.00,887.00,1801.00
395,14576.00,7636.00,656.00,28.67,559.00,1049.00,298.00
396,15264.00,7268.00,548.00,28.72,1754.00,1500.00,-124.00
397,15384.00,7272.00,332.00,28.67,1162.00,1161.00,-857.00
398,17700.00,6660.00,960.00,28.58,3195.00,2361.00,-1993.00
399,14240.00,5972.00,1700.00,28.62,2508.00,1723.00,-2221.00
400,18564.00,7212.00,1336.00,28.67,4256.00,3016.00,248.00
401,14692.00,7584.00,1800.00,28.62,1608.00,1472.00,1661.00
402,13504.00,6912.00,1200.00,28.62,753.00,1379.00,1058.00
403,14440.00,7684.00,1320.00,28.58,2270.00,1126.00,1878.00
404,15868.00,8072.00,1244.00,28.62,-199.00,-1143.00,748.00
405,15892.00,7780.00,1692.00,28.58,-3969.00,-3159.00,-1025.00
406,15716.00,6840.00,1344.00,28.67,-2949.00,-2513.00,-1139.00
407,15884.00,6420.00,568.00,28.67,-2576.00,-3073.00,-526.00
408,17364.00,6900.00,1200.00,28.62,-3715.00,-4084.00,171.00
409,12096.00,5580.00,1108.00,28.58,-6434.00,-4617.00,-834.00
410,16252.00,5540.00,1364.00,28.67,-502.00,652.00,-1210.00
411,17836.00,7912.00,812.00,28.72,6906.00,1903.00,2249.00
412,15160.00,6736.00,120.00,28.62,-6635.00,-2298.00,-2034.00
413,13636.00,5244.00,148.00,28.62,-1728.00,446.00,-1274.00
414,14624.00,6084.00,-360.00,28.48,-80.00,785.00,694.00
415,15112.00,7224.00,-60.00,28.72,848.00,495.00,1819.00
416,14972.00,7524.00,-140.00,28.72,1133.00,973.00,1156.00
417,15200.00,7592.00,-132.00,28.62,1122.00,469.00,-139.00
418,15276.00,7188.00,192.00,28.77,-117.00,399.00,-1728.00
419,16108.00,6216.00,1248.00,28.62,3639.00,2571.00,-1700.00
420,13700.00,5916.00,1528.00,28.77,4726.00,2833.00,-835.00
421,19236.00,7636.00,1496.00,28.72,4626.00,3133.00,1363.00
422,14648.00,7616.00,1792.00,28.53,1661.00,1659.00,2431.00
423,13612.00,6944.00,1244.00,28.67,854.00,1617.00,437.00
424,15172.00,7412.00,1080.00,28.67,982.00,824.00,389.00
425,16556.00,7696.00,1356.00,28.58,-798.00,-1040.00,38.00
426,15460.00,7276.00,1572.00,28.67,-4995.00,-2973.00,-1956.00
427,15684.00,5804.00,984.00,28.67,-3995.00,-2190.00,-2055.00
428,17120.00,6508.00,944.00,28.67,-2741.00,-2506.00,538.00
429,16524.00,7692.00,80.00,28.67,-4963.00,-4442.00,1070.00
430,13280.00,6572.00,784.00,28.72,-8872.00,-5918.00,-2874.00
431,16364.00,5692.00,1012.00,28.53,-2219.00,-1042.00,-2568.00
432,16660.00,7000.00,656.00,28.58,2942.00,-163.00,861.00
433,13788.00,6476.00,76.00,28.67,-6198.00,-2880.00,-1089.00
434,14384.00,8168.00,-2088.00,28.67,-12921.00,-4382.00,-1912.00
435,14900.00,9008.00,-2092.00,28.72,-30994.00,-10396.00,-6495.00
436,13388.00,8288.00,628.00,28.67,-24287.00,-9945.00,-6632.00
437,13804.00,9288.00,3380.00,28.58,-5420.00,-5216.00,-1155.00
438,12888.00,8704.00,4476.00,28.67,5038.00,-987.00,643.00
439,13816.00,8904.00,4036.00,28.67,5005.00,2551.00,135.00
440,14368.00,8584.00,3456.00,28.72,8541.00,5349.00,1269.00
441,15784.00,9168.00,2928.00,28.67,8379.00,5782.00,1634.00
442,15880.00,10120.00,3144.00,28.67,6394.00,2851.00,1939.00
443,12564.00,7728.00,2128.00,28.62,2115.00,2498.00,986.00
444,12660.00,8164.00,2076.00,28.67,7125.00,3159.00,2618.00
445,15092.00,9096.00,1940.00,28.62,6358.00,2468.00,1863.00
446,15680.00,9140.00,1420.00,28.62,2584.00,796.00,559.00
447,14492.00,8148.00,288.00,28.62,-496.00,-822.00,-554.00
448,16332.00,8160.00,988.00,28.62,628.00,-1856.00,-239.00
449,17116.00,8312.00,1828.00,28.67,-2492.00,-3161.00,321.00
450,11780.00,5300.00,640.00,28.67,931.00,2028.00,395.00
451,16784.00,7132.00,-308.00,28.62,9583.00,5393.00,2561.00
452,17044.00,8448.00,736.00,28.67,2883.00,537.00,1176.00
453,14264.00,6628.00,-392.00,28.62,-4692.00,-672.00,-1555.00
454,13768.00,6272.00,232.00,28.58,-606.00,697.00,-166.00
455,15188.00,6084.00,1024.00,28.58,30.00,399.00,1430.00
456,15428.00,6936.00,1144.00,28.58,1524.00,1525.00,1891.00
457,14740.00,7336.00,404.00,28.62,631.00,1436.00,1986.00
458,14220.00,8164.00,568.00,28.62,-1151.00,951.00,779.00
459,13572.00,9096.00,472.00,28.62,-3433.00,258.00,-753.00
460,16864.00,10304.00,680.00,28.67,-4685.00,817.00,-2358.00
461,13804.00,8948.00,1556.00,28.62,246.00,944.00,-2669.00
462,17380.00,9376.00,2572.00,28.62,599.00,1330.00,-3666.00
463,15448.00,8948.00,3132.00,28.58,4349.00,17.00,-1915.00
464,12872.00,6976.00,2744.00,28.58,-242.00,-1110.00,-4532.00
465,13544.00,6544.00,3340.00,28.67,413.00,-803.00,-3262.00
466,15080.00,6948.00,3816.00,28.72,-271.00,-1157.00,-1595.00
467,16404.00,6948.00,3752.00,28.67,-1074.00,-1416.00,-529.00
468,15872.00,6128.00,2676.00,28.58,325.00,-380.00,576.00
469,17824.00,6984.00,2280.00,28.58,53.00,-1135.00,1713.00
470,14224.00,7192.00,328.00,28.62,-3135.00,-3476.00,3919.00
471,15724.00,9484.00,-280.00,28.67,-1051.00,1485.00,4666.00
472,14972.00,10564.00,1168.00,28.62,1957.00,-1270.00,6215.00
473,12268.00,8092.00,604.00,28.58,-6456.00,-3472.00,466.00
474,12476.00,7964.00,96.00,28.62,-771.00,-856.00,1572.00
475,13904.00,8808.00,892.00,28.62,27.00,36.00,1474.00
476,14624.00,9432.00,716.00,28.58,462.00,307.00,660.00
477,14172.00,8972.00,996.00,28.62,13.00,-44.00,-1006.00
478,14400.00,8696.00,792.00,28.62,855.00,885.00,-3082.00
479,13948.00,8420.00,1120.00,28.53,1275.00,2259.00,-4566.00
480,18188.00,7852.00,3200.00,28.67,1795.00,3935.00,-6229.00
481,17124.00,7556.00,2168.00,28.58,8035.00,5631.00,-2324.00
482,16544.00,7464.00,3604.00,28.62,5516.00,2119.00,-2032.00
483,13656.00,6228.00,2148.00,28.58,-2040.00,852.00,-3882.00
484,12044.00,5700.00,2500.00,28.72,1468.00,1978.00,-542.00
485,15428.00,7192.00,2180.00,28.58,1765.00,-75.00,2920.00
486,15564.00,8164.00,2464.00,28.58,-1731.00,-1994.00,3584.00
487,15100.00,8676.00,2068.00,28.67,-2733.00,-2511.00,2992.00
488,15424.00,9052.00,1388.00,28.62,-1234.00,-1864.00,1406.00
489,18660.00,9652.00,2056.00,28.62,-3314.00,-3542.00,472.00
490,12256.00,7708.00,1732.00,28.58,-9062.00,-5348.00,-1922.00
491,15796.00,6608.00,1604.00,28.58,-1496.00,427.00,-2629.00
492,16304.00,6828.00,1468.00,28.53,-383.00,-396.00,-314.00
493,13344.00,5508.00,336.00,28.58,-5504.00,-1262.00,690.00
494,13828.00,6436.00,860.00,28.62,79.00,625.00,3987.00
495,15432.00,8300.00,1164.00,28.72,2809.00,1287.00,5975.00
496,14020.00,8412.00,940.00,28.67,1571.00,775.00,4246.00
497,14120.00,8792.00,416.00,28.58,2240.00,1803.00,2483.00
498,13480.00,9768.00,68.00,28.58,2169.00,2262.00,1576.00
499,14016.00,10092.00,32.00,28.58,2080.00,2767.00,-61.00
500,19508.00,11348.00,1440.00,28.62,2676.00,1709.00,-1586.00
501,15068.00,8848.00,3464.00,28.58,4517.00,340.00,-5471.00
502,17748.00,8132.00,3744.00,28.62,699.00,-1289.00,-8729.00
503,15288.00,6780.00,3544.00,28.58,-3889.00,-1343.00,-9443.00
504,13384.00,5572.00,3620.00,28.58,-1261.00,-451.00,-7436.00
505,14304.00,5520.00,3332.00,28.67,-1153.00,-284.00,-4176.00
506,15672.00,7020.00,2884.00,28.58,1222.00,-967.00,624.00
507,15408.00,7596.00,2372.00,28.58,-1926.00,-2773.00,1858.00
508,15776.00,7740.00,1672.00,28.53,-1468.00,-3120.00,3277.00
509,18748.00,9064.00,2952.00,28.62,-4034.00,-4718.00,5809.00
510,11560.00,7516.00,1492.00,28.62,-8235.00,-5762.00,5444.00
511,17428.00,8664.00,116.00,28.62,-1000.00,-428.00,6950.00
512,14944.00,9500.00,1276.00,28.62,-1146.00,-1951.00,6777.00
513,13160.00,9084.00,628.00,28.62,-2730.00,-1717.00,4635.00
514,12512.00,9092.00,436.00,28.67,2898.00,1188.00,2243.00
515,14648.00,9604.00,456.00,28.62,5112.00,2153.00,1202.00
516,14208.00,8980.00,736.00,28.53,2580.00,1390.00,-1474.00
517,14580.00,8504.00,716.00,28.67,2730.00,1143.00,-3490.00
518,15128.00,8352.00,604.00,28.62,3229.00,1506.00,-5624.00
519,15044.00,8132.00,804.00,28.48,3266.00,2062.00,-8891.00
520,19312.00,7832.00,2556.00,28.62,1727.00,2729.00,-10042.00
521,15216.00,7208.00,2520.00,28.58,4267.00,2890.00,-6951.00
522,17420.00,7684.00,3008.00,28.53,-1044.00,1135.00,-4855.00
523,13872.00,7000.00,2448.00,28.62,-829.00,1353.00,-591.00
524,12000.00,6488.00,1792.00,28.62,332.00,1363.00,1267.00
525,14156.00,7604.00,1968.00,28.58,1097.00,177.00,3673.00
526,15488.00,8344.00,2164.00,28.58,105.00,-1596.00,5238.00
527,16144.00,8652.00,2520.00,28.62,-1222.00,-2230.00,4875.00
528,15492.00,7944.00,2280.00,28.62,-1998.00,-1581.00,4153.00
529,15804.00,8712.00,1480.00,28.58,-2217.00,-2142.00,4719.00
530,15140.00,8336.00,2064.00,28.58,-5931.00,-3579.00,3891.00
531,15084.00,8324.00,652.00,28.53,-2769.00,-1269.00,2619.00
532,16712.00,7336.00,868.00,28.67,-4263.00,-2295.00,-544.00
533,14312.00,6568.00,448.00,28.72,-7482.00,-3886.00,-1616.00
534,13872.00,6844.00,-68.00,28.53,-2483.00,-1281.00,249.00
535,13992.00,7476.00,84.00,28.67,-90.00,-412.00,1840.00
536,13992.00,8424.00,76.00,28.67,3072.00,855.00,2528.00
537,13928.00,8508.00,400.00,28.62,2493.00,450.00,808.00
538,14600.00,8484.00,448.00,28.62,2565.00,784.00,-969.00
539,15188.00,8744.00,532.00,28.62,2328.00,1250.00,-3194.00
540,14768.00,7248.00,928.00,28.48,2578.00,1558.00,-5172.00
541,15804.00,7340.00,1304.00,28.62,3905.00,2580.00,-5522.00
542,14132.00,6640.00,1860.00,28.58,4625.00,3187.00,-5539.00
543,18156.00,7252.00,2616.00,28.53,4346.00,4140.00,-3327.00
544,16108.00,8380.00,2528.00,28.53,5650.00,2908.00,1517.00
545,13116.00,7516.00,1640.00,28.53,-864.00,770.00,-946.00
546,13808.00,6948.00,1704.00,28.62,-302.00,1016.00,-1147.00
547,15840.00,7484.00,1420.00,28.53,-1367.00,-646.00,220.00
548,16264.00,7732.00,1808.00,28.58,-3717.00,-2599.00,896.00
549,15744.00,6292.00,1700.00,28.53,-3074.00,-1539.00,2138.00
550,16132.00,6236.00,1152.00,28.62,-1482.00,-1203.00,4683.00
551,15884.00,7132.00,1600.00,28.58,-6354.00,-4172.00,5876.00
552,14892.00,7472.00,968.00,28.58,-6050.00,-1296.00,4364.00
553,15936.00,9440.00,1132.00,28.62,330.00,-618.00,4153.00
554,14160.00,8736.00,628.00,28.67,-9926.00,-4494.00,-2107.00
555,12920.00,6708.00,344.00,28.62,-3094.00,-546.00,-2044.00
556,14132.00,7868.00,-80.00,28.58,1546.00,638.00,-144.00
557,14900.00,8352.00,964.00,28.58,-1044.00,-2234.00,-2070.00
558,14876.00,7236.00,1436.00,28.58,-4117.00,-2186.00,-4188.00
559,13668.00,6708.00,2100.00,28.58,-249.00,394.00,-3312.00
560,13788.00,6228.00,2664.00,28.62,-1021.00,2324.00,-3930.00
561,20020.00,7280.00,2220.00,28.58,5010.00,6275.00,431.00
562,18088.00,8616.00,3592.00,28.62,8247.00,4885.00,2866.00
563,14604.00,7908.00,2836.00,28.58,-472.00,954.00,-457.00
564,12900.00,6452.00,2080.00,28.58,516.00,2977.00,-627.00
565,13924.00,7208.00,1912.00,28.62,3527.00,2347.00,1479.00
566,17168.00,8508.00,2204.00,28.62,509.00,-720.00,368.00
567,15540.00,7756.00,2848.00,28.62,-4747.00,-3377.00,-2648.00
568,15836.00,6072.00,2352.00,28.58,-2565.00,-1656.00,-1533.00
569,15728.00,7064.00,2072.00,28.53,-386.00,-1770.00,2225.00
570,16732.00,8156.00,2652.00,28.62,-3000.00,-4134.00,2718.00
571,11860.00,7272.00,2660.00,28.58,-6223.00,-5139.00,679.00
572,15504.00,7300.00,2520.00,28.44,-4448.00,-1343.00,-1071.00
573,16076.00,9428.00,1592.00,28.62,1387.00,-102.00,551.00
574,13744.00,8384.00,68.00,28.62,-3021.00,-243.00,-1753.00
575,13396.00,7332.00,552.00,28.48,721.00,-83.00,-1108.00
576,14672.00,7680.00,1156.00,28.58,1077.00,-434.00,-421.00
577,14404.00,7876.00,1548.00,28.62,233.00,-30.00,-148.00
578,13800.00,7416.00,1276.00,28.62,371.00,357.00,-183.00
579,14652.00,7484.00,1312.00,28.62,1121.00,810.00,-68.00
580,14396.00,7744.00,1712.00,28.53,851.00,1269.00,-975.00
581,15120.00,7040.00,1448.00,28.62,2136.00,3261.00,-1541.00
582,18060.00,7220.00,2028.00,28.58,8161.00,5014.00,1128.00
583,15288.00,7332.00,3320.00,28.62,2426.00,1839.00,349.00
584,15208.00,7632.00,2808.00,28.53,2375.00,2160.00,2540.00
585,14144.00,7936.00,2856.00,28.58,3450.00,2443.00,1883.00
586,14532.00,7944.00,2624.00,28.53,598.00,584.00,-269.00
587,14880.00,7432.00,2892.00,28.53,-1330.00,-852.00,-888.00
588,16020.00,7808.00,2696.00,28.48,-1437.00,-1246.00,-800.00
589,15080.00,7320.00,1944.00,28.62,-2128.00,-1539.00,-1490.00
590,14640.00,6848.00,1572.00,28.62,-1955.00,-2354.00,-834.00
591,16676.00,7808.00,1964.00,28.53,-1340.00,-3096.00,1058.00
592,14840.00,8264.00,1324.00,28.58,-1860.00,-3574.00,1018.00
593,14032.00,7404.00,1260.00,28.58,-6315.00,-2836.00,-4546.00
594,19152.00,8344.00,1060.00,28.53,988.00,-1712.00,-1830.00
595,14408.00,6996.00,1356.00,28.62,-5599.00,-3083.00,-4165.00
596,13076.00,5544.00,860.00,28.53,-116.00,153.00,-1671.00
597,13640.00,6588.00,1212.00,28.53,862.00,232.00,1329.00
598,13380.00,7448.00,908.00,28.62,1985.00,1152.00,3623.00
599,14364.00,7884.00,888.00,28.48,2260.00,1831.00,3968.00
600,14868.00,8872.00,708.00,28.48,2662.00,1596.00,3409.00
601,14740.00,9016.00,688.00,28.62,-305.00,233.00,157.00
602,15932.00,8528.00,844.00,28.67,-1618.00,1047.00,-2722.00
603,16860.00,7528.00,1600.00,28.53,4526.00,3766.00,-1871.00
604,12856.00,6004.00,2552.00,28.53,2294.00,2446.00,-2910.00
605,18668.00,7308.00,2212.00,28.58,3805.00,3600.00,1015.00
606,14784.00,8136.00,2552.00,28.58,4505.00,2041.00,4301.00
607,13432.00,7644.00,2132.00,28.62,-689.00,109.00,439.00
608,14972.00,7576.00,2324.00,28.53,-959.00,-378.00,-270.00
609,15816.00,7988.00,2448.00,28.53,-1529.00,-1284.00,-223.00
610,15800.00,7596.00,2584.00,28.53,-4018.00,-2919.00,-1312.00
611,14792.00,6476.00,2104.00,28.53,-3731.00,-2202.00,-736.00
612,15352.00,7156.00,1320.00,28.58,-1612.00,-2148.00,1120.00
613,17192.00,8620.00,1920.00,28.48,-3153.00,-3865.00,1769.00
614,13672.00,7868.00,1932.00,28.53,-5837.00,-3179.00,-1669.00
615,18720.00,8508.00,1060.00,28.62,613.00,-86.00,-1417.00
616,14468.00,6980.00,664.00,28.62,-3131.00,-975.00,-3146.00
617,13092.00,6204.00,268.00,28.62,897.00,300.00,-722.00
618,13816.00,7176.00,1112.00,28.58,649.00,-729.00,401.00
619,14732.00,7708.00,1060.00,28.58,356.00,-233.00,1414.00
620,13976.00,7924.00,1156.00,28.58,701.00,609.00,1220.00
621,14620.00,8296.00,908.00,28.48,1545.00,809.00,462.00
622,14364.00,8108.00,780.00,28.58,-755.00,262.00,-1422.00
623,14808.00,7320.00,1244.00,28.58,-274.00,1054.00,-2397.00
624,17980.00,6840.00,1288.00,28.62,4520.00,3841.00,-424.00
625,14160.00,6376.00,2964.00,28.53,5634.00,3721.00,376.00
626,18516.00,8188.00,2324.00,28.48,4827.00,2885.00,2919.00
627,13764.00,7364.00,2564.00,28.62,-238.00,964.00,2113.00
628,12912.00,7208.00,2196.00,28.53,1731.00,1944.00,1802.00
629,15544.00,8324.00,1500.00,28.58,2664.00,1535.00,2166.00
630,15764.00,8524.00,1752.00,28.62,-1236.00,-1956.00,101.00
631,15468.00,7508.00,1700.00,28.62,-4766.00,-3263.00,-2365.00
632,14764.00,6624.00,1012.00,28.53,-2824.00,-3174.00,-1810.00
633,16336.00,6240.00,656.00,28.62,-5819.00,-5580.00,-317.00
634,16276.00,6416.00,1972.00,28.53,-4622.00,-4656.00,601.00
635,18476.00,7432.00,768.00,28.58,1511.00,895.00,13.00
636,15628.00,6208.00,788.00,28.53,-3073.00,-1514.00,-2589.00
637,13332.00,4776.00,-96.00,28.62,-6719.00,-3219.00,-2417.00
638,12928.00,5836.00,1076.00,28.58,-1417.00,-828.00,785.00
639,14240.00,7472.00,1068.00,28.62,942.00,592.00,2884.00
640,13948.00,8236.00,740.00,28.53,1050.00,713.00,3189.00
641,14276.00,8892.00,524.00,28.53,367.00,764.00,1767.00
642,15184.00,8668.00,404.00,28.58,-755.00,67.00,-524.00
643,14988.00,8048.00,300.00,28.53,-694.00,498.00,-2314.00
644,16280.00,6396.00,944.00,28.58,1175.00,2023.00,-3347.00
645,15856.00,5756.00,1436.00,28.58,4597.00,2981.00,-1949.00
646,17292.00,6044.00,3616.00,28.53,3947.00,2812.00,-1508.00
647,17884.00,7840.00,3264.00,28.48,2541.00,1884.00,2408.00
648,13464.00,6940.00,2452.00,28.53,41.00,1745.00,1824.00
649,13408.00,6560.00,1896.00,28.53,3037.00,3378.00,1752.00
650,15316.00,7888.00,1376.00,28.58,2964.00,2290.00,2898.00
651,15760.00,8772.00,1936.00,28.58,448.00,-776.00,1319.00
652,15564.00,7568.00,1760.00,28.48,-4567.00,-2386.00,-1945.00
653,15992.00,7144.00,1292.00,28.39,-1425.00,-1841.00,-1257.00
654,14968.00,6432.00,1504.00,28.58,-3151.00,-4623.00,-1147.00
655,15864.00,6252.00,2128.00,28.58,-6344.00,-4786.00,-1604.00
656,15420.00,6628.00,2036.00,28.44,-349.00,878.00,-2176.00
657,15152.00,7024.00,1668.00,28.58,2985.00,1727.00,-352.00
658,12944.00,6640.00,1332.00,28.53,-426.00,645.00,-718.00
659,14228.00,7684.00,2204.00,28.53,96.00,913.00,-1664.00
660,14588.00,7880.00,3028.00,28.53,-1988.00,1295.00,-4654.00
661,14988.00,7064.00,2172.00,28.58,2926.00,2174.00,-4246.00
662,13812.00,7124.00,1236.00,28.53,5114.00,638.00,-2924.00
663,13028.00,6788.00,1636.00,28.58,1502.00,-1265.00,-3673.00
664,12480.00,7148.00,1496.00,28.62,3071.00,-1288.00,-2345.00
665,12944.00,8536.00,284.00,28.62,7971.00,-658.00,-224.00
666,13364.00,10188.00,-932.00,28.53,7173.00,-2347.00,-485.00
667,13436.00,11488.00,-3296.00,28.58,6324.00,-3527.00,-2281.00
668,12756.00,11160.00,-3256.00,28.58,3849.00,-5742.00,-5490.00
669,12596.00,9832.00,-3368.00,28.53,4212.00,-6525.00,-6073.00
670,12000.00,10660.00,-4684.00,28.53,6183.00,-7021.00,-4515.00
671,13604.00,10076.00,-5836.00,28.53,4151.00,-6028.00,-3247.00
672,13768.00,11708.00,-7876.00,28.62,2377.00,-4817.00,-3045.00
673,11148.00,10284.00,-6552.00,28.53,743.00,-2983.00,-4438.00
674,8184.00,10436.00,-6756.00,28.53,1132.00,-1481.00,-3261.00
675,8120.00,10764.00,-7948.00,28.53,3327.00,-1048.00,-2062.00
676,8940.00,12232.00,-7232.00,28.48,-89.00,-1995.00,-2295.00
677,8800.00,11692.00,-8200.00,28.58,928.00,-1547.00,-3407.00
678,7048.00,10884.00,-7868.00,28.53,1006.00,-1946.00,-4554.00
679,6848.00,9876.00,-7688.00,28.44,1387.00,-3081.00,-5007.00
680,6344.00,10752.00,-8580.00,28.58,1393.00,-3161.00,-4847.00
681,5688.00,11268.00,-8912.00,28.48,1619.00,-3891.00,-5212.00
682,4832.00,11752.00,-8180.00,28.58,2321.00,-4500.00,-5538.00
683,5148.00,11928.00,-10404.00,28.58,2313.00,-4867.00,-5867.00
684,5668.00,12156.00,-11340.00,28.58,5298.00,-3108.00,-5497.00
685,3576.00,10944.00,-12452.00,28.67,5862.00,-3942.00,-4073.00
686,1084.00,9836.00,-12368.00,28.48,6115.00,-6405.00,-4449.00
687,-4848.00,10808.00,-16444.00,28.58,5836.00,-6202.00,-3002.00
688,1512.00,7500.00,-11092.00,28.44,5437.00,4549.00,2983.00
689,-760.00,4420.00,-12332.00,28.48,5801.00,1346.00,2951.00
690,-892.00,4492.00,-14816.00,28.62,2611.00,2230.00,2772.00
691,704.00,5816.00,-14520.00,28.58,788.00,663.00,32.00
692,1500.00,6628.00,-15196.00,28.53,2436.00,-693.00,148.00
693,884.00,5468.00,-11556.00,28.58,2223.00,-2216.00,-811.00
694,976.00,5756.00,-10540.00,28.53,-81.00,-1831.00,-1556.00
695,652.00,4804.00,-11896.00,28.62,-1023.00,-1936.00,-613.00
696,-272.00,3060.00,-13440.00,28.58,-2942.00,-1961.00,1272.00
697,-964.00,3292.00,-13428.00,28.58,-3145.00,-930.00,3245.00
698,3604.00,9256.00,-18692.00,28.48,4818.00,-2291.00,2931.00
699,-292.00,6044.00,-12348.00,28.44,-2190.00,-4469.00,-441.00
700,-1404.00,7044.00,-13148.00,28.44,382.00,-1594.00,387.00
701,-1956.00,7100.00,-14240.00,28.58,-1034.00,-1428.00,-1322.00
702,-1404.00,6560.00,-13172.00,28.53,1811.00,-548.00,-1738.00
703,-1908.00,4900.00,-12668.00,28.58,1844.00,-1100.00,-1393.00
704,-1712.00,3412.00,-15944.00,28.44,3434.00,-113.00,1564.00
705,-1704.00,5436.00,-14044.00,28.58,488.00,641.00,2612.00
706,-2072.00,4836.00,-12672.00,28.53,703.00,1467.00,1963.00
707,-472.00,5656.00,-15524.00,28.48,1636.00,2142.00,2009.00
708,884.00,5336.00,-14236.00,28.53,628.00,2161.00,1717.00
709,1692.00,4864.00,-13860.00,28.58,388.00,837.00,2040.00
710,1436.00,4244.00,-12624.00,28.48,84.00,368.00,1271.00
711,2592.00,4996.00,-13312.00,28.58,313.00,-477.00,1197.00
712,3852.00,4900.00,-14676.00,28.53,1727.00,-936.00,607.00
713,3352.00,3316.00,-14292.00,28.53,481.00,-1575.00,-441.00
714,64.00,3932.00,-14208.00,28.58,-1488.00,-1769.00,-748.00
715,-1000.00,4052.00,-15112.00,28.62,-1148.00,-1070.00,-624.00
716,-480.00,4384.00,-14596.00,28.58,-975.00,-430.00,-40.00
717,772.00,3884.00,-14368.00,28.58,852.00,-323.00,-596.00
718,1052.00,2884.00,-14408.00,28.44,41.00,-496.00,-733.00
719,-364.00,3452.00,-13312.00,28.53,-226.00,-199.00,-531.00
720,-96.00,3548.00,-14344.00,28.58,-55.00,96.00,859.00
721,-480.00,4060.00,-13272.00,28.53,-755.00,448.00,77.00
722,80.00,5456.00,-15628.00,28.62,-1248.00,-316.00,-24.00
723,52.00,3988.00,-14480.00,28.53,90.00,136.00,-136.00
724,312.00,4364.00,-14068.00,28.62,-944.00,-194.00,-200.00
725,8.00,4076.00,-14312.00,28.53,-382.00,-133.00,-43.00
726,40.00,4304.00,-14160.00,28.53,-415.00,-91.00,-181.00
727,100.00,4204.00,-14336.00,28.53,-394.00,-7.00,-276.00
728,28.00,4164.00,-14192.00,28.53,-165.00,-113.00,-147.00
729,108.00,4152.00,-14368.00,28.62,-171.00,-165.00,-52.00
730,136.00,4264.00,-14416.00,28.67,-322.00,-103.00,-143.00
731,116.00,4196.00,-14156.00,28.48,-170.00,-97.00,-162.00
732,436.00,3704.00,-14232.00,28.53,-774.00,-588.00,17.00
733,208.00,4200.00,-14256.00,28.53,-142.00,-87.00,-260.00
734,236.00,4000.00,-14480.00,28.53,-570.00,-475.00,-90.00
735,184.00,4100.00,-14380.00,28.53,-127.00,-100.00,-226.00
736,284.00,4120.00,-14344.00,28.48,-139.00,-151.00,-227.00
737,84.00,4252.00,-14456.00,28.53,-248.00,-196.00,-202.00
738,160.00,4176.00,-14396.00,28.53,-414.00,-107.00,-106.00
739,452.00,4188.00,-14160.00,28.58,-293.00,-57.00,-226.00
740,348.00,4112.00,-14256.00,28.48,-292.00,-53.00,-308.00
741,204.00,4152.00,-14288.00,28.48,-203.00,-65.00,-192.00
742,232.00,4024.00,-14328.00,28.67,-332.00,-89.00,-170.00
743,240.00,4108.00,-14116.00,28.53,-203.00,-54.00,-97.00
744,124.00,4292.00,-14280.00,28.53,-218.00,-106.00,-239.00
745,412.00,3872.00,-14416.00,28.53,-375.00,-143.00,-174.00
746,324.00,3968.00,-14304.00,28.58,-295.00,-111.00,-218.00
747,404.00,4076.00,-14328.00,28.53,-241.00,-95.00,-220.00
748,236.00,4116.00,-14556.00,28.53,-372.00,-167.00,-165.00
749,180.00,4020.00,-14384.00,28.58,-383.00,-187.00,-176.00
750,284.00,4224.00,-14324.00,28.58,-220.00,-155.00,-154.00
751,304.00,4128.00,-14476.00,28.53,-265.00,-128.00,-260.00
752,292.00,4156.00,-14332.00,28.53,-387.00,-191.00,-96.00
753,328.00,4108.00,-14352.00,28.58,-436.00,-196.00,-252.00
754,280.00,3872.00,-14388.00,28.48,-483.00,-276.00,-124.00
755,216.00,4128.00,-14444.00,28.53,-374.00,-144.00,-190.00
756,108.00,4432.00,-14368.00,28.58,-529.00,-374.00,-139.00
757,304.00,4184.00,-14356.00,28.58,-333.00,-162.00,-164.00
758,280.00,4084.00,-14400.00,28.53,-299.00,-141.00,-165.00
759,200.00,4432.00,-14292.00,28.48,-746.00,-574.00,-65.00
760,308.00,4108.00,-14304.00,28.48,-259.00,-149.00,-146.00
761,328.00,3968.00,-14328.00,28.53,-343.00,-152.00,-126.00
762,252.00,4104.00,-14280.00,28.62,-330.00,-204.00,-227.00
763,264.00,4208.00,-14344.00,28.53,-404.00,-186.00,-212.00
764,204.00,4088.00,-14332.00,28.58,-331.00,-179.00,-198.00
765,388.00,4140.00,-14320.00,28.53,-681.00,-557.00,-8.00
766,260.00,4080.00,-14308.00,28.53,-222.00,-112.00,-193.00
767,564.00,3644.00,-14252.00,28.53,-651.00,-466.00,-87.00
768,132.00,3960.00,-14428.00,28.53,-258.00,-158.00,-158.00
769,340.00,4084.00,-14324.00,28.58,-348.00,-173.00,-183.00
770,132.00,4108.00,-14428.00,28.62,-241.00,-180.00,-216.00
771,356.00,4084.00,-14244.00,28.53,-366.00,-182.00,-113.00
772,316.00,4160.00,-14236.00,28.48,-308.00,-143.00,-200.00
773,340.00,4060.00,-14408.00,28.58,-276.00,-168.00,-180.00
774,192.00,4040.00,-14268.00,28.53,-326.00,-163.00,-197.00
775,404.00,3980.00,-14356.00,28.48,-264.00,-136.00,-155.00
776,404.00,3988.00,-14376.00,28.53,-282.00,-143.00,-190.00
777,180.00,3992.00,-14336.00,28.44,-284.00,-134.00,-164.00
778,312.00,3892.00,-14360.00,28.48,-262.00,-107.00,-184.00
779,268.00,3956.00,-14436.00,28.53,-362.00,-147.00,-216.00
780,336.00,4120.00,-14300.00,28.53,-293.00,-139.00,-156.00
781,248.00,3884.00,-14176.00,28.48,-308.00,-122.00,-157.00
782,436.00,3988.00,-14428.00,28.44,-281.00,-134.00,-110.00
783,336.00,4084.00,-14336.00,28.53,-333.00,-177.00,-297.00
784,312.00,3996.00,-14376.00,28.48,-348.00,-120.00,-202.00
785,408.00,3904.00,-14196.00,28.62,-356.00,-156.00,-209.00
786,332.00,4048.00,-14304.00,28.53,-261.00,-161.00,-199.00
787,488.00,3920.00,-14328.00,28.53,-515.00,-301.00,-112.00
788,340.00,4036.00,-14432.00,28.44,-313.00,-165.00,-191.00
789,404.00,4036.00,-14344.00,28.58,-326.00,-211.00,-220.00
790,324.00,4076.00,-14396.00,28.53,-433.00,-220.00,-207.00
791,244.00,4064.00,-14520.00,28.58,-352.00,-204.00,-148.00
792,480.00,4052.00,-14268.00,28.48,-375.00,-177.00,-162.00
793,212.00,3952.00,-14280.00,28.53,-601.00,-415.00,-119.00
794,336.00,4064.00,-14388.00,28.48,-295.00,-191.00,-168.00
795,224.00,4020.00,-14356.00,28.48,-272.00,-217.00,-159.00
796,264.00,4040.00,-14324.00,28.53,-368.00,-183.00,-111.00
797,380.00,3996.00,-14288.00,28.48,-3
Sample,aX,aY,az,Temp,gX,gY,gz
1,440.00,3916.00,-14324.00,28.53,-403.00,-264.00,-263.00
2,452.00,3944.00,-14328.00,28.53,-492.00,-311.00,-206.00
3,576.00,3984.00,-14480.00,28.53,-382.00,-318.00,-171.00
4,444.00,3984.00,-14332.00,28.53,-367.00,-333.00,-251.00
5,360.00,3960.00,-14352.00,28.44,-255.00,-290.00,-144.00
6,356.00,3972.00,-14348.00,28.53,-205.00,-115.00,-197.00
7,580.00,3984.00,-14424.00,28.53,36.00,-6.00,-209.00
8,676.00,3940.00,-14272.00,28.53,-5.00,-45.00,-277.00
9,600.00,3840.00,-14340.00,28.48,-182.00,-95.00,-266.00
10,796.00,3368.00,-14484.00,28.48,-471.00,-227.00,-245.00
11,332.00,3720.00,-14628.00,28.58,-497.00,-233.00,-86.00
12,652.00,3816.00,-14396.00,28.48,-480.00,-218.00,-13.00
13,520.00,3936.00,-14376.00,28.48,-403.00,-187.00,-220.00
14,328.00,3844.00,-14336.00,28.58,-282.00,-128.00,-186.00
15,540.00,3816.00,-1440